timestamp,acc_x_g,acc_y_g,acc_z_g,gyro_x_dps,gyro_y_dps,gyro_z_dps,gesture
1732508606.7362478,-0.028186767578125,0.3297396240234375,1.9736029052734376,-2.7211488549618323,-6.453912213740458,2.045759541984733,swipe_up
1732508606.7694845,0.026012451171875,0.2901888427734375,1.9855657958984376,0.2025152671755726,-2.369942748091603,-0.3282862595419847,swipe_up
1732508606.8025765,-0.012317626953125,0.2914095458984375,1.9985052490234376,1.5231259541984734,-0.7668893129770993,-0.1450801526717557,swipe_up
1732508606.8356824,-0.020618408203125,0.2647982177734375,2.0116888427734376,6.5078587786259545,1.393416030534351,1.8396526717557253,swipe_up
1732508606.8687515,-0.014514892578125,0.3158236083984375,1.9762884521484376,6.668164122137404,2.6376908396946566,3.022858778625954,swipe_up
1732508606.9018235,-0.005969970703125001,0.3534212646484375,1.9753118896484376,6.217782442748091,5.652958015267176,0.5877442748091604,swipe_up
1732508606.9349031,-0.042591064453125,0.3583040771484375,2.0043646240234376,7.0803778625954195,4.721660305343511,-2.290118320610687,swipe_up
1732508606.9679663,-0.086780517578125,0.3929720458984375,1.9809271240234376,1.561293893129771,-0.6600190839694657,-0.32065267175572515,swipe_up
1732508607.0010335,-0.042835205078125,0.4100618896484375,1.9570013427734376,-4.614278625954198,-1.7745229007633587,0.8625534351145039,swipe_up
1732508607.0341158,-0.017688720703125,0.3858919677734375,1.9792181396484376,-6.42343893129771,0.7369274809160304,-0.27485114503816793,swipe_up
1732508607.0671883,-0.031116455078125,0.3636751708984375,1.9684759521484376,-13.492141221374045,-3.4920801526717558,-2.549660305343511,swipe_up
1732508607.101046,-0.010608642578125,0.3168001708984375,1.9916693115234376,-10.850919847328244,-4.25543893129771,-3.3435534351145035,swipe_up
1732508607.134139,-0.026233642578125,0.3548861083984375,1.9469915771484376,-11.942522900763358,-4.789790076335878,-3.4962251908396946,swipe_up
1732508607.1672103,-0.015735595703125,0.3246126708984375,1.9740911865234376,-15.973057251908395,0.561354961832061,1.1984312977099238,swipe_up
1732508607.200273,0.006725341796874999,0.2980013427734375,1.9386907958984376,-15.492141221374045,9.89723282442748,-3.7023320610687023,swipe_up
1732508607.2333488,-0.038928955078125,0.2892122802734375,1.9711614990234376,-9.75168320610687,11.668225190839694,-7.969507633587786,swipe_up
1732508607.266456,-0.078968017578125,0.2696810302734375,2.0002142333984376,-1.7287824427480916,3.034637404580153,-4.259583969465648,swipe_up
1732508607.2995603,-0.044300048828125,0.2955599365234375,1.9523626708984376,0.5154923664122139,-2.1638358778625952,1.045759541984733,swipe_up
1732508607.3326411,0.016490966796875,0.3094759521484375,1.9306341552734376,0.9277061068702291,3.1415076335877865,-2.8779045801526717,swipe_up
1732508607.3657234,-0.033069580078125,0.3248568115234375,1.9601751708984376,-1.4997748091603051,2.3247137404580154,-4.213782442748092,swipe_up
1732508607.398798,-0.005969970703125001,0.3128939208984375,1.9660345458984376,-1.4997748091603051,5.103339694656489,-1.2748511450381679,swipe_up
1732508607.4318776,-0.041126220703125,0.3136263427734375,1.9189154052734376,-3.92725572519084,4.431583969465649,-3.7023320610687023,swipe_up
1732508607.464946,-0.056262939453125,0.3189974365234375,1.9416204833984376,-0.7898511450381679,7.729293893129771,-4.3359198473282445,swipe_up
1732508607.4980147,-0.041858642578125,0.18691735839843748,2.1232611083984376,28.1414465648855,22.08807251908397,-8.916072519083968,swipe_up
1732508607.5311134,-0.058948486328125,-0.07406896972656252,2.3454290771484376,150.85137022900764,61.37051526717558,-10.351187022900763,swipe_up
1732508607.5641775,-0.300647705078125,-0.16879553222656252,2.2961126708984376,251.54602671755723,21.347614503816793,13.312935114503818,swipe_up
1732508607.597245,-0.060413330078125,-0.16293615722656252,2.5429388427734376,251.54602671755723,81.73692748091604,75.3358358778626,swipe_up
1732508607.6303663,0.045543701171875,0.11709313964843748,2.4623724365234376,251.54602671755723,173.58425572519081,167.17553053435114,swipe_up
1732508607.663437,-0.588001220703125,0.4173861083984375,1.1525579833984376,251.54602671755723,52.072805343511455,214.7709503816794,swipe_up
1732508607.6964989,-0.100940673828125,1.1891146240234374,1.4684759521484376,251.54602671755723,-106.00353053435114,116.26713358778626,swipe_up
1732508607.7295773,0.478405029296875,2.2066927490234374,1.0690618896484376,118.22541603053436,-99.92719465648855,-17.43515648854962,swipe_up
1732508607.7627728,0.321666748046875,1.9483919677734374,1.8351751708984376,33.44679007633587,-55.171469465648855,-35.557293893129774,swipe_up
1732508607.7958443,-0.196887939453125,1.7879915771484374,1.6989447021484376,29.58419465648855,44.37051526717558,40.08392748091603,swipe_up
1732508607.8289275,-0.140979736328125,2.0099154052734374,1.6127630615234376,-23.110461832061066,14.317080152671755,35.198431297709924,swipe_up
1732508607.8619957,0.047252685546875,1.4930697021484374,2.1498724365234376,-25.950156488549617,-41.99589694656488,-26.381721374045803,swipe_up
1732508607.8951192,0.047008544921875,1.5790072021484374,1.9892279052734376,-0.8738206106870228,23.263645038167937,-8.290118320610686,swipe_up
1732508607.9281974,-0.144153564453125,1.8182650146484374,1.8215032958984376,-47.59901145038168,-0.3088740458015268,-21.89317175572519,swipe_up
1732508607.9612672,-0.075061767578125,1.4359407958984374,2.1003118896484376,-71.68298091603053,0.2636450381679389,-12.274851145038168,swipe_up
1732508607.994333,-0.061878173828125,1.4745150146484374,2.0563665771484376,-36.04175954198474,26.217843511450383,-3.3664541984732823,swipe_up
1732508608.027409,-0.115833251953125,1.6686068115234374,1.9233099365234376,-52.43107251908397,-6.24780534351145,-28.519125954198476,swipe_up
1732508608.0604713,-0.086292236328125,1.5233431396484374,2.0085150146484376,-76.27076717557252,4.07280534351145,-23.328286259541986,swipe_up
1732508608.093539,-0.083850830078125,1.2711458740234374,2.1994329833984376,-48.17916412213741,-10.25543893129771,-22.25195038167939,swipe_up
1732508608.1266181,-0.121936767578125,1.5404329833984374,1.9972845458984376,-51.3700038167939,-9.41574427480916,-25.61072900763359,swipe_up
1732508608.1596828,0.006237060546874999,1.2970247802734374,2.1847845458984376,-42.263133587786264,5.729293893129771,-14.839736641221373,swipe_up
1732508608.1927493,-0.133655517578125,1.4181185302734374,2.0658880615234376,-45.47687404580153,11.73692748091603,-12.801568702290076,swipe_up
1732508608.2258139,-0.166126220703125,1.3766146240234374,2.0358587646484376,-74.32420229007633,2.9735687022900765,-13.88553816793893,swipe_up
1732508608.258892,-0.128284423828125,1.4459505615234374,1.9430853271484376,-141.55320992366413,-4.682919847328244,-15.25195038167939,swipe_up
1732508608.2919707,-0.136096923828125,1.5235872802734374,1.7489935302734376,-234.7287824427481,-61.789790076335876,-69.16034732824427,swipe_up
1732508608.3250375,0.096813232421875,0.5365267333984375,2.5387884521484376,-164.8051183206107,-85.14093511450382,-55.98477480916031,swipe_up
1732508608.3581135,-0.252552001953125,0.7281771240234375,2.3241888427734376,-73.58374427480915,11.965935114503816,-10.435156488549618,swipe_up
1732508608.391195,-0.224475830078125,1.1283236083984374,1.9787298583984376,-121.39290458015267,-35.22490458015267,-1.8931717557251908,swipe_up
1732508608.4242637,0.028942138671875,0.7335482177734375,2.2350775146484376,-162.98069083969466,-47.484446564885495,-14.496225190839695,swipe_up
1732508608.4573429,0.019176513671875,0.4552279052734375,2.4826361083984376,-52.86618702290077,3.6147900763358782,1.1526297709923665,swipe_up
1732508608.4904463,-0.116077392578125,0.7792025146484375,2.1305853271484376,-30.73641603053435,-13.385209923664123,-7.305385496183206,swipe_up
1732508608.5235367,-0.024036376953125,0.8082552490234375,2.0883489990234376,-59.62191221374046,-26.660019083969466,-11.114545801526717,swipe_up
1732508608.5566165,0.041393310546875,0.5016146240234375,2.2941595458984376,-59.62954580152672,-10.988263358778626,2.6335458015267177,swipe_up
1732508608.5896993,-0.055774658203125,0.6195345458984375,2.2074896240234376,-19.77458396946565,-3.1943702290076335,-3.3282862595419846,swipe_up
1732508608.6227722,0.0020866699218749993,0.6820345458984375,2.1552435302734376,-29.881454198473282,-8.545515267175574,-1.488591603053435,swipe_up
1732508608.6558492,-0.035022705078125,0.6293001708984375,2.1491400146484376,-36.79748473282443,-15.889026717557252,-3.3282862595419846,swipe_up
1732508608.688936,0.019664794921875,0.6498079833984375,2.1486517333984376,-36.84328625954199,-23.087500000000002,-8.190881679389312,swipe_up
1732508608.7220075,0.048717529296875,0.6588411865234375,2.1327825927734376,-45.690614503816796,-19.537881679389315,-1.3435534351145038,swipe_up
1732508610.7803745,0.068492919921875,0.3038607177734375,1.9799505615234376,-0.2173320610687022,-0.705820610687023,1.0228587786259544,swipe_up
1732508610.8134713,0.093883544921875,0.3150911865234375,1.9765325927734376,1.2406832061068702,2.515553435114504,0.37400381679389316,swipe_up
1732508610.846554,0.049449951171875,0.3219271240234375,1.9445501708984376,-5.7135152671755725,-1.721087786259542,2.3663702290076336,swipe_up
1732508610.8796372,0.080211669921875,0.3238802490234375,1.9804388427734376,-2.1257290076335877,2.965935114503817,0.9694236641221374,swipe_up
1732508610.9127038,0.047252685546875,0.3067904052734375,1.9692083740234376,-7.927255725190839,1.6682251908396946,1.1144618320610689,swipe_up
1732508610.9457746,0.034557373046875,0.3287630615234375,1.9816595458984376,-6.896721374045802,0.6376908396946565,0.6793473282442748,swipe_up
1732508610.9788547,0.056774169921875,0.3534212646484375,1.9277044677734376,-18.446339694656487,1.6605916030534351,0.030492366412213756,swipe_up
1732508611.0119214,0.022838623046875,0.2860384521484375,1.9445501708984376,-23.675347328244275,2.7827290076335878,3.564843511450382,swipe_up
1732508611.0449877,0.019176513671875,0.2718782958984375,1.9469915771484376,-20.537942748091602,-3.133301526717557,2.3358358778625954,swipe_up
1732508611.078065,0.027721435546875,0.2767611083984375,1.9687200927734376,-14.202064885496183,-2.4081106870229005,-2.2061488549618318,swipe_up
1732508611.1111329,0.032115966796875,0.2823763427734375,1.9269720458984376,-6.828019083969465,-2.782156488549618,-0.8168358778625954,swipe_up
1732508611.1442277,0.056041748046875,0.23598962402343748,1.9523626708984376,-2.3165687022900765,-4.011164122137404,-0.35882061068702287,swipe_up
1732508611.1772943,0.088512451171875,0.2689486083984375,1.9206243896484376,-0.5455763358778625,-2.3928435114503817,-0.5114923664122137,swipe_up
1732508611.2103605,0.067028076171875,0.2865267333984375,1.9235540771484376,-5.950156488549618,-1.8432251908396946,-1.824469465648855,swipe_up
1732508611.2434227,0.064830810546875,0.3221712646484375,1.8979193115234376,-13.461606870229007,0.3018129770992366,-2.1985152671755723,swipe_up
1732508611.2765408,0.046764404296875,0.2501497802734375,1.9513861083984376,-8.637179389312976,-3.5302480916030534,-1.6794312977099235,swipe_up
1732508611.3096194,0.047740966796875,0.2645540771484375,1.9154974365234376,-12.72114885496183,-4.446278625954198,-0.7252328244274809,swipe_up
1732508611.3426807,0.070446044921875,0.23208337402343748,1.9323431396484376,-9.148629770992367,-7.728721374045802,-4.549660305343512,swipe_up
1732508611.375763,0.087780029296875,0.24966149902343748,1.9013372802734376,-7.270767175572519,-4.140935114503817,0.0915610687022901,swipe_up
1732508611.408834,0.042125732421875,0.2831087646484375,1.8901068115234376,-17.018858778625955,-2.2172709923664122,3.1831641221374047,swipe_up
1732508611.4419029,0.089489013671875,0.2765169677734375,1.8786322021484376,-16.194431297709922,2.133874045801527,-1.8855381679389311,swipe_up
1732508611.474985,0.065319091796875,0.24453454589843748,1.8886419677734376,-19.91962213740458,8.73692748091603,2.076293893129771,swipe_up
1732508611.508051,0.028942138671875,0.2574739990234375,1.8766790771484376,-22.293667938931296,7.41631679389313,1.2595,swipe_up
1732508611.5411153,0.075817138671875,0.21816735839843748,1.8942572021484376,-16.644812977099235,20.71402671755725,3.961790076335878,swipe_up
1732508611.5741906,0.070201904296875,0.04653649902343748,2.0212103271484376,13.164347328244276,36.55372137404581,11.366370229007634,swipe_up
1732508611.6072633,0.055797607421875,-0.06283850097656252,2.0197454833984376,90.40098854961832,50.95830152671756,-2.458057251908397,swipe_up
1732508611.6403668,0.031871826171875,-0.21322912597656252,2.1481634521484376,251.54602671755723,58.6300572519084,-44.96187404580153,swipe_up
1732508611.6734436,0.023571044921875,0.014065795898437483,2.2138372802734376,251.54602671755723,109.17967557251909,-37.542026717557256,swipe_up
1732508611.7065127,-0.188831298828125,0.7657747802734375,1.5031439208984376,251.54602671755723,101.31708015267176,27.015225190839693,swipe_up
1732508611.7395902,-0.211780517578125,0.5809603271484375,2.2167669677734376,187.49259160305343,47.67585877862596,61.67171374045802,swipe_up
1732508611.7726927,-0.248645751953125,0.7062044677734375,2.2631536865234376,189.16434732824428,21.004103053435113,56.2976679389313,swipe_up
1732508611.805765,-0.294055908203125,0.8006868896484375,2.1650091552734376,217.3093854961832,-24.499713740458017,5.2595,swipe_up
1732508611.838838,-0.119983642578125,0.9891634521484375,2.0900579833984376,206.0803778625954,-11.812690839694657,37.74804961832061,swipe_up
1732508611.8719163,-0.091419189453125,1.3724642333984374,1.9179388427734376,174.17198091603055,-9.92719465648855,35.328202290076334,swipe_up
1732508611.904987,0.130748779296875,1.5145540771484374,1.8070989990234376,110.30938549618321,15.943034351145037,48.38927099236641,swipe_up
1732508611.9380546,-0.060169189453125,1.4601107177734374,1.9772650146484376,86.1032786259542,-1.3088740458015267,25.091561068702287,swipe_up
1732508611.971136,-0.007190673828125001,1.6202669677734374,1.9616400146484376,51.049843511450376,-20.308874045801527,-6.030576335877862,swipe_up
1732508612.0042002,0.019420654296875,1.5145540771484374,2.0597845458984376,18.60709541984733,-0.04169847328244279,-5.022942748091603,swipe_up
1732508612.0372665,-0.049915283203125,1.5365267333984374,2.0153509521484376,0.8666374045801528,17.103339694656487,3.442706106870229,swipe_up
1732508612.0703397,-0.114124267578125,1.4852572021484374,2.0478216552734376,0.6528969465648856,9.73692748091603,7.083927480916031,swipe_up
1732508612.103412,-0.103382080078125,1.4571810302734374,2.0917669677734376,1.1719809160305346,3.6911259541984736,-1.251950381679389,swipe_up
1732508612.1364791,-0.094104736328125,1.5079622802734374,2.0458685302734376,-11.537942748091602,10.797996183206106,0.0915610687022901,swipe_up
1732508612.169545,-0.129016845703125,1.4637728271484374,2.0475775146484376,-10.957790076335877,4.507919847328244,-1.656530534351145,swipe_up
1732508612.2026196,-0.094593017578125,1.4098177490234374,2.1208197021484376,2.1109122137404577,1.74456106870229,-5.549660305343512,swipe_up
1732508612.235695,-0.134876220703125,1.4754915771484374,2.0497747802734376,-3.9577900763358778,-2.5531488549618317,-6.763400763358779,swipe_up
1732508612.2687645,-0.153675048828125,1.4654818115234374,2.0739447021484376,-13.91198854961832,-5.934828244274809,-6.839736641221374,swipe_up
1732508612.3018427,-0.120960205078125,1.3312044677734374,2.1562200927734376,-2.1791641221374047,1.8819656488549619,1.1602633587786262,swipe_up
1732508612.3349328,-0.134387939453125,1.4847689208984374,2.0324407958984376,-6.583744274809161,-2.1485687022900763,-2.137446564885496,swipe_up
1732508612.3679974,-0.088977783203125,1.4359407958984374,2.0700384521484376,-10.39290458015267,-1.7668893129770993,-5.39698854961832,swipe_up
1732508612.4010813,-0.075794189453125,1.4186068115234374,2.1056829833984376,-7.102828244274809,3.515553435114504,-3.9695076335877864,swipe_up
1732508612.4341493,-0.105091064453125,1.4225130615234374,2.0800482177734376,-4.973057251908397,5.675858778625955,-1.5343931297709923,swipe_up
1732508612.4683719,-0.137805908203125,1.4400911865234374,2.0805364990234376,-10.23259923664122,-1.1485687022900763,-4.1298129770992364,swipe_up
1732508612.5006502,-0.099475830078125,1.4742708740234374,2.0363470458984376,-29.88908778625954,-1.1104007633587787,-4.0153091603053435,swipe_up
1732508612.5322933,-0.140247314453125,1.3321810302734374,2.1584173583984376,-33.72114885496183,0.645324427480916,-7.167980916030534,swipe_up
1732508612.5639257,-0.130725830078125,1.3783236083984374,2.1015325927734376,-22.56847709923664,16.74456106870229,1.9312557251908398,swipe_up
1732508612.5958529,-0.162464111328125,1.4066439208984374,2.0507513427734376,-35.58374427480916,13.088072519083969,5.061026717557252,swipe_up
1732508612.6289542,-0.151477783203125,1.2687044677734374,2.2094427490234376,-31.576110687022904,-8.011164122137405,-10.183248091603053,swipe_up
1732508612.6620505,-0.161243408203125,1.3138704833984374,2.1498724365234376,-12.39290458015267,-0.36230916030534355,-4.40462213740458,swipe_up
1732508612.6951895,-0.154163330078125,1.3514681396484374,2.1093450927734376,-17.095194656488548,-5.850858778625954,-2.694698473282443,swipe_up
1732508612.7282822,-0.153919189453125,1.3619661865234374,2.0739447021484376,-41.46924045801527,-15.7668893129771,-6.580194656488549,swipe_up
1732508612.7613785,-0.098987548828125,1.2701693115234374,2.1593939208984376,-61.05702671755726,-22.362309160305344,-16.160347328244278,swipe_up
1732508617.4940567,0.117321044921875,0.4566927490234375,2.1098333740234376,0.24831679389312988,-0.25543893129770995,0.5114083969465649,swipe_up
1732508617.527185,0.093151123046875,0.4759798583984375,2.1044622802734376,1.3857213740458016,1.4850190839694657,0.2365992366412214,swipe_up
1732508617.5602977,0.097301513671875,0.4823275146484375,2.0920111083984376,0.004041984732824526,4.1415076335877865,-0.38935496183206103,swipe_up
1732508617.593399,0.099742919921875,0.4898958740234375,2.1029974365234376,-1.2173320610687022,8.37814885496183,-3.221416030534351,swipe_up
1732508617.6265366,0.063854248046875,0.4930697021484375,2.0829779052734376,-2.2631335877862595,9.881965648854962,-3.305385496183206,swipe_up
1732508617.6596398,0.068981201171875,0.5255404052734375,2.1027532958984376,-3.904354961832061,6.217843511450382,-4.244316793893129,swipe_up
1732508617.6927385,0.030162841796875,0.5082064208984375,2.0834661865234376,-4.621912213740458,1.1262404580152672,-3.954240458015267,swipe_up
1732508617.7258503,0.046520263671875,0.5140657958984375,2.0934759521484376,-4.766950381679389,-3.0875,0.2365992366412214,swipe_up
1732508617.758951,0.072155029296875,0.5196810302734375,2.0851751708984376,-6.644812977099237,-4.690553435114504,-1.0916450381679388,swipe_up
1732508617.792046,0.068004638671875,0.4808626708984375,2.0707708740234376,-10.377637404580152,-6.186736641221374,0.21369847328244276,swipe_up
1732508617.8251529,0.074596435546875,0.4471712646484375,2.0951849365234376,-9.247866412213739,-4.690553435114504,1.1678969465648856,swipe_up
1732508617.858251,0.074596435546875,0.4415560302734375,2.0859075927734376,-6.507408396946565,-3.2172709923664122,-1.5420267175572517,swipe_up
1732508617.8913498,0.082408935546875,0.4378939208984375,2.0929876708984376,-6.782217557251909,-0.6676526717557252,-0.7099656488549618,swipe_up
1732508617.924451,0.073619873046875,0.4457064208984375,2.0756536865234376,-4.545576335877863,-2.1638358778625952,-0.38172137404580153,swipe_up
1732508617.9575536,0.081920654296875,0.4559603271484375,2.0866400146484376,-6.850919847328244,-3.064599236641221,-0.8779045801526717,swipe_up
1732508617.9906514,0.058971435546875,0.4378939208984375,2.0771185302734376,-7.217332061068703,-7.7439885496183205,-3.8015687022900764,swipe_up
1732508618.0237463,0.061412841796875,0.4635286865234375,2.0839544677734376,-5.171530534351145,-7.186736641221374,-1.0076755725190838,swipe_up
1732508618.056853,0.138072998046875,0.4361849365234375,2.0583197021484376,-5.515041984732824,-6.102767175572519,-0.7863015267175573,swipe_up
1732508618.0899463,0.122203857421875,0.4479036865234375,2.0817572021484376,-6.140996183206107,-3.850858778625954,1.0991946564885497,swipe_up
1732508618.1230464,0.170543701171875,0.4559603271484375,2.0663763427734376,-7.278400763358778,3.9964694656488553,-1.4809580152671755,swipe_up
1732508618.1561873,0.120250732421875,0.4552279052734375,2.0683294677734376,-8.110461832061068,10.683492366412214,-2.2977519083969464,swipe_up
1732508618.1892843,0.167858154296875,0.3722200927734375,2.3412786865234376,20.019309160305344,47.86669847328245,-12.496225190839695,swipe_up
1732508618.222379,0.269664794921875,-0.2593717041015625,2.8981634521484376,251.54602671755723,119.43921755725191,-67.75576717557252,swipe_up
1732508618.255528,-0.408313720703125,0.5924349365234375,1.7402044677734376,251.54602671755723,74.92776717557253,-32.03820992366413,swipe_up
1732508618.2886293,-0.101428955078125,-1.0332974853515626,3.1445013427734376,251.54602671755723,-28.57604961832061,-115.64126335877862,swipe_up
1732508618.3217378,-0.019641845703125,0.4225130615234375,2.2695013427734376,251.54602671755723,165.66059160305343,-15.984774809160307,swipe_up
1732508618.3549018,-0.620471923828125,1.4422884521484374,0.9833685302734376,251.54602671755723,-14.74398854961832,40.686980916030535,swipe_up
1732508618.3879902,0.165172607421875,1.4271517333984374,1.9723822021484376,156.32465267175573,-85.07986641221373,-27.58782824427481,swipe_up
1732508618.4210622,0.114879638671875,1.6019564208984374,1.9943548583984376,86.98114122137405,-25.377576335877862,-48.870270992366414,swipe_up
1732508618.4541688,-0.020862548828125,1.4320345458984374,2.0048529052734376,143.1032786259542,-24.125667938931297,-22.61072900763359,swipe_up
1732508618.487237,-0.051380126953125,1.5450716552734374,1.7287298583984376,176.37808778625956,83.24837786259542,50.34346946564885,swipe_up
1732508618.520384,-0.240100830078125,2.0416536865234374,1.5505072021484376,95.61472900763358,4.530820610687023,26.73278244274809,swipe_up
1732508618.5531173,0.040905029296875,1.7459993896484374,1.8468939208984376,27.92007251908397,11.73692748091603,6.519041984732825,swipe_up
1732508618.5847263,-0.085803955078125,1.7254915771484374,1.7980657958984376,27.553660305343513,1.1567748091603054,-11.137446564885495,swipe_up
1732508618.6163616,-0.139270751953125,1.8248568115234374,1.7799993896484376,12.446790076335878,-9.827958015267177,-2.7023320610687023,swipe_up
1732508618.6479754,-0.048694580078125,1.7982454833984374,1.7824407958984376,-1.118095419847328,9.927767175572518,-0.31301908396946565,swipe_up
1732508618.6810465,-0.061878173828125,1.6791048583984374,1.8876654052734376,21.118545801526718,11.698759541984732,-0.40462213740458014,swipe_up
1732508618.7141154,-0.145374267578125,1.8299837646484374,1.7409368896484376,1.0498435114503817,0.996469465648855,1.6335458015267177,swipe_up
1732508618.747197,-0.070667236328125,1.7765169677734374,1.8166204833984376,-16.629545801526717,-2.034064885496183,-2.9695076335877864,swipe_up
1732508618.7802613,-0.067005126953125,1.6231966552734374,1.9154974365234376,13.065110687022901,5.393416030534351,-2.557293893129771,swipe_up
1732508618.813326,-0.144397705078125,1.8109407958984374,1.7861029052734376,4.775034351145038,4.996469465648855,-0.38935496183206103,swipe_up
1732508618.8464553,-0.101184814453125,1.7545443115234374,1.8368841552734376,-4.545576335877863,8.546087786259541,4.480874045801527,swipe_up
1732508618.879526,-0.096546142578125,1.6886263427734374,1.8803411865234376,6.591828244274809,1.0575381679389313,-0.9008053435114504,swipe_up
1732508618.912607,-0.076770751953125,1.7682161865234374,1.8017279052734376,1.629996183206107,3.553721374045802,0.2747671755725191,swipe_up
1732508618.9456756,-0.104114501953125,1.8001986083984374,1.7743841552734376,-13.72114885496183,0.5231870229007634,-1.2977519083969464,swipe_up
1732508618.978783,-0.037219970703125,1.6976595458984374,1.8898626708984376,-8.278400763358778,3.8743320610687024,-0.6488969465648855,swipe_up
1732508619.0118437,-0.097278564453125,1.7489290771484374,1.7975775146484376,-12.140996183206106,6.668225190839695,3.2595,swipe_up
1732508619.0449255,-0.112415283203125,1.7533236083984374,1.8261419677734376,-15.07229389312977,6.500286259541985,0.3511030534351145,swipe_up
1732508619.078002,-0.114368408203125,1.7250032958984374,1.8630072021484376,-17.77458396946565,1.2712786259541984,-2.8931717557251906,swipe_up
1732508619.1111004,-0.124378173828125,1.6983919677734374,1.8883978271484376,-3.728782442748092,-1.7287213740458016,-0.6946984732824427,swipe_up
1732508619.1442077,-0.102893798828125,1.7564974365234374,1.8598333740234376,-9.90435496183206,-1.102767175572519,-1.9237061068702288,swipe_up
1732508619.1772876,-0.101428955078125,1.7657747802734374,1.8083197021484376,-25.179164122137404,0.1567748091603053,-4.23668320610687,swipe_up
1732508619.2103598,-0.087757080078125,1.6463900146484374,1.9057318115234376,-20.682980916030534,2.034637404580153,-1.8931717557251908,swipe_up
1732508619.2434356,-0.159046142578125,1.8094759521484374,1.7465521240234376,-41.8967213740458,-8.186736641221374,0.893087786259542,swipe_up
1732508619.276514,-0.243518798828125,2.1500521240234374,1.3119818115234376,-163.2707671755725,-46.78215648854962,-5.389354961832061,swipe_up
1732508619.3095815,0.054576904296875,1.3766146240234374,1.9369818115234376,-248.72114885496183,-78.43101145038167,-31.641263358778627,swipe_up
1732508619.3426435,-0.042102783203125,1.1488314208984374,2.1049505615234376,-169.43870610687023,-0.44627862595419854,3.061026717557252,swipe_up
1732508619.3757505,-0.231800048828125,1.6527376708984374,1.3671575927734376,-248.72114885496183,-89.53024809160306,-1.2366832061068702,swipe_up
1732508619.4088316,-0.080432861328125,1.1205111083984374,1.4921575927734376,-248.72114885496183,-168.5226145038168,117.25186641221374,swipe_up
1732508619.4419231,0.413951904296875,0.9879427490234375,2.8905950927734376,-248.72114885496183,-140.68291984732826,88.22133206106871,swipe_up
1732508619.4750106,0.270397216796875,0.6949739990234375,2.6750189208984376,-248.72114885496183,-82.0111641221374,37.12209541984733,swipe_up
1732508624.9533308,0.159069091796875,0.4618197021484375,2.0746771240234376,-2.2860343511450383,-4.1943702290076335,-0.06111068702290075,swipe_up
1732508624.9864724,0.169078857421875,0.4454622802734375,2.1017767333984376,-1.957790076335878,-4.5226145038167935,-0.20614885496183205,swipe_up
1732508625.0195532,0.176891357421875,0.4474154052734375,2.0790716552734376,-1.4921412213740457,-2.316507633587786,0.793851145038168,swipe_up
1732508625.0526536,0.184947998046875,0.4356966552734375,2.0837103271484376,-0.8356526717557251,1.8056297709923663,-0.22141603053435113,swipe_up
1732508625.0857182,0.175426513671875,0.4642611083984375,2.0661322021484376,-2.072293893129771,3.8743320610687024,0.8472862595419848,swipe_up
1732508625.1187894,0.158336669921875,0.5011263427734375,2.0702825927734376,-5.537942748091603,6.3628816793893135,1.2900343511450383,swipe_up
1732508625.1518612,0.138805419921875,0.5187044677734375,2.0334173583984376,-12.537942748091602,7.4773854961832065,2.610645038167939,swipe_up
1732508625.1849225,0.126354248046875,0.4676790771484375,2.0568548583984376,-19.599011450381678,3.881965648854962,1.328202290076336,swipe_up
1732508625.21803,0.118785888671875,0.4769564208984375,2.0475775146484376,-18.20969847328244,-0.5607824427480916,1.5419427480916033,swipe_up
1732508625.25111,0.143199951171875,0.4579134521484375,2.0373236083984376,-26.690614503816793,-2.1485687022900763,1.961790076335878,swipe_up
1732508625.2841995,0.149059326171875,0.3980989990234375,2.0417181396484376,-27.843286259541983,-3.8890267175572517,-0.473324427480916,swipe_up
1732508625.3172684,0.166637451171875,0.3712435302734375,2.0329290771484376,-24.293667938931296,-4.270706106870229,0.32056870229007633,swipe_up
1732508625.3503435,0.167614013671875,0.3876009521484375,2.0214544677734376,-19.629545801526717,1.5842557251908396,-2.358820610687023,swipe_up
1732508625.3834233,0.138805419921875,0.3458529052734375,2.0043646240234376,-21.660080152671753,-0.8966603053435115,-2.977141221374046,swipe_up
1732508625.4164872,0.164196044921875,0.3326693115234375,2.0485540771484376,-14.209698473282442,-6.453912213740458,-2.3511870229007634,swipe_up
1732508625.449561,0.152477294921875,0.3937044677734375,1.9748236083984376,-11.934889312977099,-1.652385496183206,-1.8397366412213738,swipe_up
1732508625.482652,0.154186279296875,0.3695345458984375,2.0107122802734376,-16.835652671755724,1.5995229007633587,-5.969507633587786,swipe_up
1732508625.5157228,0.244518310546875,-0.05014318847656252,2.4262396240234376,62.65289694656489,59.378148854961836,-17.290118320610688,swipe_up
1732508625.5488124,0.218395263671875,-1.0332974853515626,3.0851751708984376,251.54602671755723,146.57662213740457,-125.3053854961832,swipe_up
1732508625.581886,-0.287708251953125,0.5836458740234375,0.8752142333984376,251.54602671755723,28.820896946564886,-178.37408778625954,swipe_up
1732508625.6149557,0.682506591796875,0.9618197021484375,2.0990911865234376,251.54602671755723,237.53082061068702,33.09156106870229,swipe_up
1732508625.6480343,-0.056995361328125,1.5787630615234374,1.1496282958984376,251.54602671755723,133.22547709923663,12.740416030534352,swipe_up
1732508625.6810925,0.034557373046875,1.9129915771484374,0.9069525146484376,212.62999618320612,-18.667652671755725,-41.358820610687026,swipe_up
1732508625.7141545,0.136364013671875,1.7709017333984374,1.5099798583984376,170.05747709923665,44.08807251908397,-29.290118320610688,swipe_up
1732508625.7472315,-0.268421142578125,1.8307161865234374,1.4115911865234376,203.88953816793892,32.256011450381685,-14.206148854961832,swipe_up
1732508625.7802901,-0.283557861328125,2.3500032958984374,0.8971868896484376,61.09564503816794,30.149141221374045,27.37400381679389,swipe_up
1732508625.813353,-0.186878173828125,1.7804232177734374,1.7580267333984376,-48.46160687022901,-32.988263358778624,-4.625996183206107,swipe_up
1732508625.8464572,-0.080432861328125,1.6935091552734374,1.8654486083984376,4.58419465648855,-30.45391221374046,-17.93133969465649,swipe_up
1732508625.8795226,-0.156604736328125,1.9361849365234374,1.5981146240234376,-13.728782442748091,-9.125667938931299,-3.5649274809160305,swipe_up
1732508625.912604,-0.119983642578125,1.7875032958984374,1.7892767333984376,-13.59901145038168,-2.7592557251908394,3.312935114503817,swipe_up
1732508625.9456754,-0.106311767578125,1.7955599365234374,1.7040716552734376,-1.0646603053435113,3.2407442748091606,4.5419427480916035,swipe_up
1732508625.978777,-0.137561767578125,1.8998079833984374,1.5956732177734376,-14.278400763358778,-1.171469465648855,0.1831641221374046,swipe_up
1732508626.0118523,-0.123645751953125,1.7828646240234374,1.7089544677734376,-21.43107251908397,-4.056965648854962,-4.511492366412214,swipe_up
1732508626.0449283,-0.159290283203125,1.8412142333984374,1.6506048583984376,-14.140996183206106,-4.606583969465649,-1.9695076335877861,swipe_up
1732508626.0779917,-0.184192626953125,1.8836947021484374,1.6137396240234376,-38.31656870229008,-21.362309160305344,-3.358820610687023,swipe_up
1732508626.1111026,-0.197620361328125,1.9230013427734374,1.5273138427734376,-82.02649236641221,-46.23253816793893,-8.328286259541985,swipe_up
1732508626.1441748,-0.043567626953125,1.7645540771484374,1.7275091552734376,-122.76695038167938,-59.988263358778624,-4.07637786259542,swipe_up
1732508626.177239,-0.014270751953125,1.7540560302734374,1.7480169677734376,-159.20969847328243,4.179675572519084,23.396904580152672,swipe_up
1732508626.2103221,-0.103137939453125,1.8983431396484374,1.4689642333984376,-248.72114885496183,21.2331106870229,30.977057251908395,swipe_up
1732508626.2434242,-0.163440673828125,1.4901400146484374,1.6686712646484376,-248.72114885496183,-119.19437022900763,77.24423282442748,swipe_up
1732508626.2766044,0.068492919921875,0.8793001708984375,2.0988470458984376,-248.72114885496183,-30.59895038167939,83.20606488549619,swipe_up
1732508626.3096838,-0.043567626953125,0.9925814208984375,2.4181829833984376,-144.37000381679388,-86.7668893129771,54.17553053435115,swipe_up
1732508626.3427587,0.145641357421875,0.9889193115234375,2.3498236083984376,-171.95015648854962,-54.19437022900763,5.748049618320611,swipe_up
1732508626.3758588,0.389049560546875,0.8292513427734375,2.6127630615234376,-50.23259923664122,45.77509541984733,7.618278625954199,swipe_up
1732508626.4089293,-0.125110595703125,1.1559114990234374,1.9965521240234376,-61.23259923664122,-2.2401717557251906,10.09919465648855,swipe_up
1732508626.4419978,0.100963623046875,0.9576693115234375,2.1242376708984376,-71.86618702290076,-17.995896946564887,17.244232824427478,swipe_up
1732508626.4750953,0.119518310546875,0.8790560302734375,2.3420111083984376,-46.950156488549624,-29.61421755725191,4.839652671755725,swipe_up
1732508626.5081553,0.123424560546875,0.9977083740234375,2.6637884521484376,-24.064660305343512,-24.194370229007635,-14.992408396946566,swipe_up
1732508626.5412436,0.213024169921875,1.0824251708984374,2.0353704833984376,-46.36237022900764,-6.133301526717557,1.045759541984733,swipe_up
1732508626.5743232,0.035533935546875,1.0304232177734374,1.9945989990234376,-117.70588167938931,-22.835591603053437,8.75568320610687,swipe_up
1732508626.6074078,0.106090576171875,0.7084017333984375,2.1667181396484376,-63.51504198473282,-16.629484732824427,16.488507633587783,swipe_up
1732508626.6404696,0.195446044921875,0.6388216552734375,2.3744818115234376,-92.18679770992367,-15.285973282442749,-3.190881679389313,swipe_up
1732508626.6735463,0.110240966796875,0.7928743896484375,2.0878607177734376,-93.11046183206106,-23.461545801526718,14.221332061068702,swipe_up
1732508626.7066274,0.159557373046875,0.6202669677734375,2.0495306396484376,-123.56084351145037,-30.965362595419847,26.34346946564885,swipe_up
1732508626.7396896,0.184215576171875,0.4525423583984375,2.2592474365234376,-98.73641603053434,-26.63711832061069,25.160263358778625,swipe_up
1732508626.7727635,0.269908935546875,0.4547396240234375,2.2499700927734376,-50.66008015267176,-0.3012404580152672,7.068660305343512,swipe_up
1732508626.8058279,0.163219482421875,0.4784212646484375,2.0756536865234376,-36.705881679389314,-1.5073473282442749,5.709881679389313,swipe_up
1732508626.8388932,0.155651123046875,0.4510775146484375,2.0888372802734376,-35.41580534351145,-7.705820610687023,17.839652671755722,swipe_up
1732508626.8719668,0.196178466796875,0.4579134521484375,2.1203314208984376,-23.599011450381678,-3.034064885496183,10.312935114503818,swipe_up
1732508626.9050298,0.188121826171875,0.4632845458984375,2.0798040771484376,-17.782217557251908,1.2254770992366413,3.59537786259542,swipe_up
1732508626.9380925,0.151989013671875,0.4249544677734375,2.1071478271484376,-6.560843511450382,1.027003816793893,6.396904580152672,swipe_up
1732508630.5001445,0.128307373046875,0.3880892333984375,2.0038763427734376,-3.7135152671755725,0.9659351145038167,-0.5038587786259542,swipe_up
1732508630.533254,0.097301513671875,0.4447298583984375,1.9767767333984376,-21.644812977099235,-4.278339694656489,4.007591603053435,swipe_up
1732508630.5663588,0.124401123046875,0.3922396240234375,1.9533392333984376,-58.40053816793893,-3.797423664122137,10.75568320610687,swipe_up
1732508630.5995271,0.171764404296875,0.3224154052734375,1.9914251708984376,-45.13336259541985,12.462118320610687,10.061026717557253,swipe_up
1732508630.6326313,0.146129638671875,0.2848177490234375,2.0216986083984376,-20.973057251908397,12.339980916030534,3.679347328244275,swipe_up
1732508630.6657302,0.070934326171875,0.2635775146484375,1.9992376708984376,-1.8661870229007633,-0.5073473282442749,1.6106450381679391,swipe_up
1732508630.6988368,0.089977294921875,0.2821322021484375,1.9538275146484376,5.561293893129771,-8.041698473282443,1.4198053435114506,swipe_up
1732508630.7319286,0.105114013671875,0.2931185302734375,1.9543157958984376,1.7368664122137405,-3.331774809160305,0.31293511450381684,swipe_up
1732508630.765023,0.114635498046875,0.2887239990234375,1.9667669677734376,-0.9425229007633587,3.2560114503816795,-1.5420267175572517,swipe_up
1732508630.7981253,0.119030029296875,0.2850618896484375,1.9567572021484376,-2.446339694656489,3.41631679389313,-0.5191259541984733,swipe_up
1732508630.8312433,0.106334716796875,0.3043489990234375,1.9667669677734376,0.30175190839694666,4.607156488549618,-1.488591603053435,swipe_up
1732508630.864338,0.095348388671875,0.3209505615234375,1.9628607177734376,0.7979351145038169,2.034637404580153,0.053393129770992385,swipe_up
1732508630.8974457,0.107799560546875,0.3331575927734375,1.9538275146484376,-2.7822175572519083,0.7216603053435114,-0.7939351145038168,swipe_up
1732508630.930543,0.118053466796875,0.3395052490234375,1.9767767333984376,-4.2555000000000005,2.515553435114504,-0.6946984732824427,swipe_up
1732508630.9636347,0.111217529296875,0.3399935302734375,1.9469915771484376,-8.820385496183205,4.126240458015268,0.17553053435114505,swipe_up
1732508630.9967399,0.151256591796875,0.3480501708984375,1.9582220458984376,-11.858553435114503,9.103339694656487,-5.198515267175573,swipe_up
1732508631.0298357,0.276989013671875,0.04140954589843748,2.3842474365234376,52.84373664122137,57.820896946564886,-58.38935496183206,swipe_up
1732508631.0629315,0.532848388671875,-1.0332974853515626,3.1568914794921876,251.54602671755723,212.90486641221372,-192.9313396946565,swipe_up
1732508631.0960326,0.153697998046875,-0.8145474853515625,0.11398376464843762,251.54602671755723,157.0422709923664,-63.35882061068702,swipe_up
1732508631.1291263,-0.055286376953125,0.9308138427734375,1.1225286865234376,251.54602671755723,-42.41574427480916,-14.267217557251909,swipe_up
1732508631.1622164,0.432750732421875,1.6615267333984374,1.4240423583984376,251.54602671755723,115.04227099236641,-20.206148854961835,swipe_up
1732508631.1953213,-0.056995361328125,2.2049837646484374,0.7419134521484376,180.4773244274809,27.011736641221372,-98.14508015267175,swipe_up
1732508631.2284126,-0.229114501953125,1.8504915771484374,1.2626654052734376,64.91243893129771,17.54608778625954,-11.274851145038168,swipe_up
1732508631.2615073,-0.042346923828125,1.9344759521484374,1.4721380615234376,83.62236259541986,6.836164122137404,1.6106450381679391,swipe_up
1732508631.294615,0.163951904296875,2.3338900146484374,1.1965032958984376,-17.095194656488548,69.39341603053435,19.427438931297708,swipe_up
1732508631.32771,-0.103626220703125,1.7723665771484374,1.7638861083984376,-81.94252290076335,48.9506679389313,2.305301526717557,swipe_up
1732508631.3608096,-0.148059814453125,1.6827669677734374,1.8110052490234376,-31.04939312977099,-24.26307251908397,-14.893171755725191,swipe_up
1732508631.393918,-0.109241455078125,1.9654818115234374,1.6305853271484376,-61.438706106870235,-49.7668893129771,-16.572561068702292,swipe_up
1732508631.4270265,0.061168701171875,1.6439486083984374,1.9731146240234376,-62.026492366412214,3.332347328244275,-11.09164503816794,swipe_up
1732508631.4601173,-0.148059814453125,1.5973177490234374,1.9738470458984376,-16.163896946564886,10.72166030534351,-4.580194656488549,swipe_up
1732508631.4933233,-0.212512939453125,1.7818880615234374,1.8175970458984376,-17.62191221374046,-16.583683206106873,-6.610729007633588,swipe_up
1732508631.5264394,-0.010364501953125,1.6498079833984374,1.9579779052734376,-12.018858778625953,-2.835591603053435,-10.755767175572519,swipe_up
1732508631.5595398,-0.134876220703125,1.7125521240234374,1.8202825927734376,-0.23259923664122129,4.011736641221375,1.061026717557252,swipe_up
1732508631.5926495,-0.129016845703125,1.7716341552734374,1.8088079833984376,-3.507408396946565,-2.018797709923664,3.2976679389312977,swipe_up
1732508631.6257608,-0.044300048828125,1.7191439208984374,1.8754583740234376,-3.324202290076336,-2.446278625954198,2.1526297709923665,swipe_up
1732508631.65886,-0.098255126953125,1.7699251708984374,1.8034368896484376,-5.545576335877863,-1.5149809160305343,2.496141221374046,swipe_up
1732508631.6919641,-0.048694580078125,1.7545443115234374,1.8229681396484376,-12.400538167938931,-2.1256679389312976,-0.05347709923664121,swipe_up
1732508631.7250617,-0.063098876953125,1.7511263427734374,1.8244329833984376,-24.026492366412214,2.0270038167938935,4.244232824427481,swipe_up
1732508631.7581592,-0.043323486328125,1.7511263427734374,1.8129583740234376,-40.202064885496185,4.729293893129771,5.0915610687022905,swipe_up
1732508631.7912643,-0.108264892578125,1.8229036865234374,1.7438665771484376,-78.19443129770993,-2.0493320610687022,8.625912213740458,swipe_up
1732508631.8243637,-0.166370361328125,1.9344759521484374,1.5556341552734376,-164.33946946564885,-53.07223282442748,12.221332061068702,swipe_up
1732508631.8574634,-0.004993408203125001,1.5846224365234374,1.7448431396484376,-248.72114885496183,-42.20963740458015,55.320568702290075,swipe_up
1732508631.8905623,0.029918701171875,1.4147005615234374,1.4413763427734376,-248.72114885496183,26.06517175572519,134.80148473282443,swipe_up
1732508631.9236677,-0.209339111328125,1.0572786865234374,1.8083197021484376,-248.72114885496183,-100.7668893129771,31.5801106870229,swipe_up
1732508631.9567637,0.171031982421875,0.5858431396484375,2.2841497802734376,-198.7058816793893,-196.72108778625955,26.75568320610687,swipe_up
1732508631.989859,0.334606201171875,0.5177279052734375,2.9057318115234376,-98.20969847328244,-92.88902671755724,5.083927480916031,swipe_up
1732508632.0229802,0.196178466796875,0.9122591552734375,1.9723822021484376,-171.3852709923664,-12.820324427480918,36.34346946564885,swipe_up
1732508632.0560787,0.199596435546875,0.6583529052734375,1.9330755615234376,-248.72114885496183,-38.301240458015265,82.23659923664123,swipe_up
1732508632.089174,0.376354248046875,-0.06161779785156252,2.7135931396484376,-158.44633969465647,2.9277671755725194,23.671713740458014,swipe_up
1732508632.1222932,0.196422607421875,0.4132357177734375,2.0658880615234376,-35.58374427480916,1.0804389312977098,-11.045843511450382,swipe_up
1732508632.155433,0.190563232421875,0.4610872802734375,2.0412298583984376,-67.76695038167938,-6.072232824427481,10.526675572519084,swipe_up
1732508632.1885314,0.213756591796875,0.3277864990234375,2.0910345458984376,-37.55320992366413,-5.537881679389312,8.877820610687023,swipe_up
1732508632.2216654,0.258434326171875,0.3795443115234375,2.1193548583984376,-2.110461832061069,3.6605916030534353,-1.5191259541984732,swipe_up
1732508632.254771,0.198864013671875,0.4383822021484375,2.0214544677734376,1.5307595419847329,3.41631679389313,-0.22904961832061066,swipe_up
1732508632.2878675,0.179088623046875,0.4408236083984375,2.0297552490234376,-12.507408396946564,-1.1943702290076337,7.511408396946565,swipe_up
1732508632.3209739,0.236217529296875,0.4168978271484375,2.0773626708984376,-5.553209923664122,5.103339694656489,1.7175152671755727,swipe_up
1732508632.3540723,0.195446044921875,0.3966341552734375,2.0466009521484376,-4.293667938931298,1.9354007633587786,0.9999580152671756,swipe_up
1732508632.3871806,0.204967529296875,0.4142122802734375,2.0385443115234376,-0.2402328244274808,-2.3852099236641218,2.618278625954199,swipe_up
1732508632.4202886,0.219860107421875,0.4254427490234375,2.0339056396484376,-2.91962213740458,-1.889026717557252,3.2747671755725194,swipe_up
1732508632.453379,0.199108154296875,0.3993197021484375,2.0412298583984376,-0.12572900763358769,-0.4157442748091604,2.526675572519084,swipe_up
1732508632.4864664,0.203990966796875,0.3902864990234375,2.0517279052734376,5.126179389312977,0.729293893129771,2.42743893129771,swipe_up
1732508634.832736,0.166149169921875,0.4410677490234375,2.0480657958984376,-0.8127519083969464,-2.25543893129771,2.190797709923664,swipe_up
1732508634.8658354,0.182018310546875,0.4393587646484375,2.0607611083984376,-0.8585534351145038,-1.805057251908397,-0.8702709923664121,swipe_up
1732508634.8989232,0.155162841796875,0.4457064208984375,2.0563665771484376,-2.8890877862595423,-1.8966603053435116,2.4579732824427483,swipe_up
1732508634.932056,0.171764404296875,0.4586458740234375,2.0517279052734376,-12.209698473282442,-3.866125954198473,4.053393129770993,swipe_up
1732508634.9651296,0.175914794921875,0.4608431396484375,2.0563665771484376,-12.766950381679388,-1.0187977099236643,5.160263358778626,swipe_up
1732508634.998213,0.166881591796875,0.4376497802734375,2.0324407958984376,-11.774583969465649,0.22547709923664117,3.42743893129771,swipe_up
1732508635.0312996,0.177623779296875,0.4283724365234375,2.0463568115234376,-9.515041984732823,-0.5684160305343512,3.282400763358779,swipe_up
1732508635.0643644,0.169567138671875,0.4237337646484375,2.0407415771484376,-11.07229389312977,-1.9500954198473284,4.671713740458015,swipe_up
1732508635.097432,0.184947998046875,0.4173861083984375,2.0758978271484376,-13.537942748091602,-2.0264312977099235,4.557209923664122,swipe_up
1732508635.1305146,0.193492919921875,0.4083529052734375,2.0180364990234376,-9.476874045801527,0.6147900763358778,1.4656068702290077,swipe_up
1732508635.163581,0.192516357421875,0.4151888427734375,2.0280462646484376,-10.42343893129771,2.57662213740458,2.42743893129771,swipe_up
1732508635.1966476,0.197155029296875,0.4200716552734375,2.0141302490234376,-24.438706106870228,4.095706106870229,3.8014847328244277,swipe_up
1732508635.229724,0.197155029296875,0.4667025146484375,1.9985052490234376,-40.99595801526718,10.874332061068701,8.92362213740458,swipe_up
1732508635.2627907,0.235973388671875,0.4969759521484375,2.0028997802734376,-52.820385496183206,27.622423664122138,6.236599236641221,swipe_up
1732508635.2958717,0.329235107421875,0.4068880615234375,2.0614935302734376,-50.04175954198474,61.97356870229008,-5.091645038167939,swipe_up
1732508635.3289535,0.366100341796875,-1.0332974853515626,3.1568914794921876,251.54602671755723,97.22547709923664,-136.18324809160305,swipe_up
1732508635.362032,-0.524768798828125,-1.0332974853515626,1.7577825927734376,251.54602671755723,61.29417938931298,-98.50385877862595,swipe_up
1732508635.39511,-0.542102783203125,1.1029329833984374,0.7646185302734376,251.54602671755723,43.24074427480916,-84.75576717557252,swipe_up
1732508635.4281876,0.875865966796875,1.3841829833984374,1.4709173583984376,251.54602671755723,198.4926526717557,69.31293511450382,swipe_up
1732508635.4612575,-0.093372314453125,2.3443880615234374,0.7489935302734376,243.98114122137406,-25.621851145038168,-28.916072519083972,swipe_up
1732508635.494383,0.035045654296875,1.8590364990234374,1.4360052490234376,48.14144656488549,-62.171469465648855,-84.12217938931298,swipe_up
1732508635.5274982,0.0033073730468749993,2.0377474365234374,1.1940618896484376,13.324652671755725,2.9735687022900765,-24.404622137404584,swipe_up
1732508635.560594,0.035778076171875,2.1991243896484374,1.1457220458984376,-40.2173320610687,33.40868320610687,29.091561068702287,swipe_up
1732508635.5936725,0.094127685546875,1.5563021240234374,1.9682318115234376,-20.186797709923663,30.500286259541983,10.473240458015267,swipe_up
1732508635.6267815,-0.126331298828125,1.8578157958984374,1.7223822021484376,-24.163896946564886,16.721660305343512,4.786217557251908,swipe_up
1732508635.6598518,-0.083606689453125,1.8285189208984374,1.8791204833984376,-71.92725572519083,-19.667652671755725,-12.92370610687023,swipe_up
1732508635.6929243,0.005504638671874999,1.5753450927734374,2.0973822021484376,-24.515041984732825,-28.91956106870229,-23.26721755725191,swipe_up
1732508635.7259939,-0.096790283203125,1.7191439208984374,1.8754583740234376,-11.652446564885496,2.3705152671755725,2.228965648854962,swipe_up
1732508635.75909,-0.021106689453125,1.7562532958984374,1.8569036865234376,-21.866187022900764,12.141507633587786,9.412171755725192,swipe_up
1732508635.7921643,0.007213623046874999,1.6830111083984374,1.8984075927734376,-7.75931679389313,-0.8890267175572519,-9.129812977099236,swipe_up
1732508635.8252652,-0.069690673828125,1.6742220458984374,1.8610540771484376,-3.873820610687023,-0.8890267175572519,-8.954240458015267,swipe_up
1732508635.858336,-0.090442626953125,1.7789583740234374,1.8122259521484376,-5.828019083969465,-8.423377862595421,-2.2519503816793893,swipe_up
1732508635.8914104,-0.032581298828125,1.7337923583984374,1.8598333740234376,-4.316568702290076,0.07280534351145034,1.343469465648855,swipe_up
1732508635.9244761,-0.043323486328125,1.6957064208984374,1.9040228271484376,-2.75931679389313,-8.041698473282443,-4.771034351145038,swipe_up
1732508635.957539,-0.024768798828125,1.7208529052734374,1.8827825927734376,-6.782217557251909,-6.835591603053435,-6.931339694656488,swipe_up
1732508635.9906023,-0.043567626953125,1.7792025146484374,1.8210150146484376,-16.469240458015268,-9.957729007633588,-5.4504236641221375,swipe_up
1732508636.0236733,-0.034290283203125,1.7704134521484374,1.8190618896484376,-34.942522900763365,-10.148568702290078,-5.358820610687022,swipe_up
1732508636.0567496,-0.037219970703125,1.7130404052734374,1.8825384521484376,-47.08756106870229,-17.316507633587786,-11.458057251908397,swipe_up
1732508636.089812,-0.020862548828125,1.6803255615234374,1.8788763427734376,-52.64481297709924,-1.6981870229007634,-6.084011450381679,swipe_up
1732508636.1228833,-0.109241455078125,1.6900911865234374,1.8359075927734376,-96.00359160305344,-9.461545801526718,-3.7481335877862594,swipe_up
1732508636.155973,-0.118762939453125,1.5751009521484374,1.9289251708984376,-105.62954580152672,-47.14856870229007,-12.137446564885495,swipe_up
1732508636.189035,0.0003776855468749993,1.4947786865234374,2.0133978271484376,-114.2555,-31.347041984732822,-0.46569083969465647,swipe_up
1732508636.2220929,0.045299560546875,1.4291048583984374,2.1066595458984376,-111.51504198473282,15.538454198473282,59.83965267175572,swipe_up
1732508636.2551663,-0.050159423828125,1.4193392333984374,2.0326849365234376,-114.97305725190839,6.75219465648855,49.6182786259542,swipe_up
1732508636.2882674,-0.0015754394531250007,1.5255404052734374,1.9264837646484376,-149.2936679389313,-13.308874045801527,49.068660305343506,swipe_up
1732508636.3213367,0.036510498046875,1.3915072021484374,1.9179388427734376,-239.65244656488548,-6.347041984732824,58.02285877862595,swipe_up
1732508636.3544502,0.085338623046875,0.8216829833984375,2.4728704833984376,-199.11809541984732,-40.04169847328244,7.236599236641221,swipe_up
1732508636.3875268,0.112926513671875,0.9874544677734375,2.4015814208984376,-99.46924045801526,-37.3699427480916,-13.190881679389312,swipe_up
1732508636.420595,0.111461669921875,1.1329622802734374,2.0646673583984376,-131.24786641221374,-19.652385496183207,4.358736641221374,swipe_up
1732508636.453676,0.129528076171875,0.8263216552734375,2.0998236083984376,-164.13336259541984,-31.423377862595416,17.92362213740458,swipe_up
1732508636.486781,0.129528076171875,0.7420931396484375,2.2846380615234376,-163.95015648854962,-16.156202290076337,24.480874045801524,swipe_up
1732508636.5198443,0.054088623046875,0.8456087646484375,2.1703802490234376,-164.20969847328243,-0.621851145038168,24.10682824427481,swipe_up
1732508636.5523815,0.132213623046875,0.6344271240234375,1.9909368896484376,-182.78985114503817,4.561354961832062,17.770950381679388,swipe_up
1732508636.584028,0.035533935546875,0.24795251464843748,2.2267767333984376,-139.62954580152672,-18.93482824427481,13.847286259541985,swipe_up
1732508636.6156347,0.088756591796875,0.4168978271484375,2.1684271240234376,-78.83565267175572,-20.621851145038168,3.5343091603053436,swipe_up
1732508636.6472955,0.155162841796875,0.4881868896484375,1.9342962646484376,-103.59901145038168,-10.43864503816794,6.2136984732824425,swipe_up
1732508636.6803691,0.063121826171875,0.18911462402343748,2.0121771240234376,-104.4997748091603,-10.60658396946565,21.38163740458015,swipe_up
1732508636.7134404,0.104381591796875,0.20010095214843748,2.0529486083984376,-71.69061450381679,-8.034064885496184,16.22896564885496,swipe_up
1732508636.7465518,0.139293701171875,0.23794274902343748,1.9926458740234376,-57.17153053435115,-6.797423664122137,7.442706106870229,swipe_up
1732508636.7796164,0.128551513671875,0.18032556152343748,1.9369818115234376,-45.03412595419847,-6.163835877862596,8.038125954198474,swipe_up
1732508636.812694,0.130016357421875,0.20815759277343748,1.9433294677734376,-26.377637404580152,-4.438645038167938,9.740416030534352,swipe_up
1732508639.0311651,0.083141357421875,0.2630892333984375,1.9169622802734376,-1.522675572519084,-0.621851145038168,-0.4809580152671756,swipe_up
1732508639.0642664,0.059459716796875,0.24502282714843748,1.9042669677734376,-1.3471030534351145,-2.2401717557251906,0.9846908396946566,swipe_up
1732508639.097361,0.078502685546875,0.23647790527343748,1.9115911865234376,-1.0799274809160304,-3.6065839694656487,0.33583587786259544,swipe_up
1732508639.1304362,0.087047607421875,0.23940759277343748,1.8988958740234376,-0.8280190839694656,-2.24780534351145,0.1831641221374046,swipe_up
1732508639.1635365,0.100475341796875,0.2513704833984375,1.9120794677734376,-2.7898511450381682,-2.316507633587786,2.228965648854962,swipe_up
1732508639.1966138,0.092906982421875,0.2574739990234375,1.9008489990234376,-5.331835877862596,-1.4615458015267175,-0.2519503816793893,swipe_up
1732508639.2296867,0.104625732421875,0.2503939208984375,1.9172064208984376,-3.5150419847328247,0.9354007633587785,-0.03820992366412212,swipe_up
1732508639.26276,0.099498779296875,0.24648767089843748,1.9045111083984376,-2.858553435114504,0.4315839694656488,-1.6412633587786258,swipe_up
1732508639.2958674,0.079723388671875,0.24404626464843748,1.9018255615234376,-2.637179389312977,0.30944656488549616,-1.0305763358778626,swipe_up
1732508639.3289392,0.095348388671875,0.24746423339843748,1.8974310302734376,-2.9501564885496183,-0.05696564885496187,1.2976679389312977,swipe_up
1732508639.3620157,0.103160888671875,0.24404626464843748,1.9064642333984376,-1.5608435114503816,0.9277671755725191,-1.0916450381679388,swipe_up
1732508639.395103,0.076793701171875,0.24404626464843748,1.8976751708984376,-1.8051183206106869,0.25601145038167933,0.3663702290076336,swipe_up
1732508639.4281678,0.096080810546875,0.22720056152343748,1.9028021240234376,-1.4081717557251907,0.019370229007633546,-0.557293893129771,swipe_up
1732508639.4612808,0.080211669921875,0.2508822021484375,1.9062200927734376,-1.3089351145038166,0.6224236641221373,-1.0840114503816793,swipe_up
1732508639.4943671,0.091442138671875,0.2604036865234375,1.8991400146484376,-4.156263358778626,0.8208969465648854,-2.618362595419847,swipe_up
1732508639.5275505,0.063610107421875,0.2560091552734375,1.9067083740234376,-5.675347328244275,1.0346374045801525,-6.877904580152672,swipe_up
1732508639.5606394,0.110240966796875,0.20180993652343748,1.8986517333984376,-1.4081717557251907,3.668225190839695,-8.366454198473283,swipe_up
1732508639.5937421,0.091686279296875,0.23598962402343748,1.8730169677734376,0.462057251908397,-0.2401717557251909,-1.4351564885496182,swipe_up
1732508639.6253514,0.100475341796875,0.24062829589843748,1.8847357177734376,-0.46160687022900754,-1.7745229007633587,-3.267217557251908,swipe_up
1732508639.6569824,0.110729248046875,0.24697595214843748,1.8883978271484376,-3.392904580152672,0.08807251908396942,-3.587828244274809,swipe_up
1732508639.688582,0.119274169921875,0.23354821777343748,1.8996282958984376,-0.8967213740458014,3.5079198473282442,-4.641263358778626,swipe_up
1732508639.7217019,0.108287841796875,0.2879915771484375,1.9411322021484376,2.462057251908397,12.164408396946564,-14.313019083969465,swipe_up
1732508639.7547882,0.172496826171875,-0.10238928222656252,2.2384954833984376,89.82846946564887,73.14914122137405,-29.000041984732825,swipe_up
1732508639.7878597,-0.061145751953125,0.04409509277343748,1.9679876708984376,235.40098854961832,29.24837786259542,-33.183248091603055,swipe_up
1732508639.8209374,0.147594482421875,0.6317415771484375,1.8180853271484376,225.5918282442748,40.2331106870229,-31.045843511450382,swipe_up
1732508639.8540123,0.216686279296875,0.18301110839843748,2.4677435302734376,251.54602671755723,76.1033396946565,-44.7023320610687,swipe_up
1732508639.8870914,-0.046497314453125,0.9540072021484375,1.6379095458984376,238.11091221374045,70.18730916030535,2.679347328244275,swipe_up
1732508639.9201674,0.076549560546875,1.0155306396484374,2.0234075927734376,71.46969083969466,45.523187022900764,11.870187022900764,swipe_up
1732508639.9532635,0.009899169921875,0.9212923583984375,2.2414251708984376,7.171980916030535,35.72166030534351,-8.694698473282443,swipe_up
1732508639.9863315,-0.098499267578125,0.8727083740234375,2.2770697021484376,18.37808778625954,-16.385209923664124,-29.297751908396947,swipe_up
1732508640.019401,-0.055286376953125,0.7555208740234375,2.3324896240234376,50.51549236641221,-13.202003816793894,-12.09164503816794,swipe_up
1732508640.0524623,-0.053577392578125,0.7084017333984375,2.4362493896484376,124.97350763358779,-2.6600190839694653,-9.480958015267175,swipe_up
1732508640.0855243,-0.178821533203125,0.7330599365234375,2.2878118896484376,230.54602671755725,8.263645038167938,4.351103053435114,swipe_up
1732508640.1185992,-0.067005126953125,1.2503939208984374,2.0219427490234376,158.920072519084,22.652958015267174,27.091561068702287,swipe_up
1732508640.1516788,0.043590576171875,1.2438021240234374,2.0859075927734376,117.40862213740458,14.07280534351145,12.053393129770992,swipe_up
1732508640.1847427,-0.051135986328125,1.3343782958984374,2.1105657958984376,88.40098854961832,0.1186068702290076,1.9159885496183207,swipe_up
1732508640.2178144,-0.026477783203125,1.3912630615234374,2.0619818115234376,80.72159923664123,-30.240171755725193,-13.305385496183206,swipe_up
1732508640.2508786,0.004772216796874999,1.3944368896484374,2.0085150146484376,74.72923282442748,-5.850858778625954,-1.0916450381679388,swipe_up
1732508640.2839365,-0.027210205078125,1.3570833740234374,2.1469427490234376,74.80556870229007,-2.4920801526717558,3.213698473282443,swipe_up
1732508640.3170056,-0.041614501953125,1.4308138427734374,2.0824896240234376,81.53075954198474,12.546087786259541,8.396904580152672,swipe_up
1732508640.3500793,-0.036243408203125,1.4723177490234374,2.0685736083984376,77.90480534351146,8.622423664122136,7.526675572519084,swipe_up
1732508640.38358,-0.046009033203125,1.5157747802734374,2.0297552490234376,70.67579770992367,-5.4081106870229005,0.39690458015267177,swipe_up
1732508640.4165933,0.020641357421875,1.5182161865234374,2.0177923583984376,67.79793511450382,2.683492366412214,2.6717137404580154,swipe_up
1732508640.448364,0.009166748046875,1.5897493896484374,1.9892279052734376,75.22541603053436,3.5613549618320612,1.9923244274809162,swipe_up
1732508640.4799886,-0.054798095703125,1.5582552490234374,2.0036322021484376,73.87427099236642,12.828530534351144,8.999958015267175,swipe_up
1732508640.5116363,-0.026966064453125,1.6356478271484374,1.9606634521484376,71.9887748091603,11.668225190839694,7.061026717557252,swipe_up
1732508640.5432477,0.006969482421874999,1.6466341552734374,1.9218450927734376,93.39335496183206,3.1720419847328247,2.7175152671755725,swipe_up
1732508640.5748584,-0.021839111328125,1.7574739990234374,1.7826849365234376,74.26358396946566,9.836164122137404,10.618278625954199,swipe_up
1732508640.6064577,-0.051135986328125,1.8258333740234374,1.8039251708984376,60.69106488549618,6.8056297709923665,6.801484732824427,swipe_up
1732508640.639526,-0.043079345703125,1.7569857177734374,1.7966009521484376,56.90480534351145,-7.25543893129771,0.5801106870229008,swipe_up
1732508640.6725981,-0.030139892578125,1.8023958740234374,1.7360540771484376,47.64526335877862,5.782729007633588,5.480874045801527,swipe_up
1732508640.705717,-0.031116455078125,1.9154329833984374,1.6584173583984376,29.187248091603053,-14.301240458015268,-4.167980916030534,swipe_up
1732508640.738822,0.012340576171875,1.9142122802734374,1.6357122802734376,0.362820610687023,-1.453912213740458,-1.7099656488549617,swipe_up
1732508640.7718916,-0.036243408203125,1.7567415771484374,1.7616888427734376,2.5383931297709923,-0.09513358778625959,-0.49622519083969463,swipe_up
1732508640.80496,0.021862060546875,1.8148470458984374,1.7299505615234376,7.981141221374046,9.996469465648854,1.2518664122137406,swipe_up
1732508640.8380446,-0.021350830078125,1.9215364990234374,1.6686712646484376,-13.163896946564885,4.042270992366412,-2.8321030534351146,swipe_up
1732508640.8711228,-0.013538330078125,1.7835970458984374,1.7655950927734376,-20.988324427480915,-6.324141221374045,-5.6794312977099235,swipe_up
1732508640.9041939,-0.008899658203125,1.7606478271484374,1.8066107177734376,-4.118095419847329,6.4850190839694655,-0.7404999999999999,swipe_up
1732508640.9372723,-0.054065673828125,1.8548861083984374,1.7370306396484376,-12.057026717557251,3.431583969465649,-1.3817213740458014,swipe_up
1732508640.9703426,-0.015735595703125,1.7589388427734374,1.8478704833984376,-11.820385496183205,0.8514312977099237,-4.114545801526718,swipe_up
1732508641.003415,-0.037708251953125,1.7672396240234374,1.8017279052734376,-0.5455763358778625,3.065171755725191,-0.35882061068702287,swipe_up
1732508643.1984441,0.162975341796875,0.2867708740234375,1.9306341552734376,1.5231259541984734,3.3781488549618324,0.8472862595419848,swipe_up
1732508643.231539,0.105846435546875,0.2857943115234375,1.9267279052734376,-0.15626335877862585,-1.3012404580152672,1.793851145038168,swipe_up
1732508643.2646124,0.139537841796875,0.2672396240234375,1.9430853271484376,0.828469465648855,-2.6218511450381676,1.4045381679389315,swipe_up
1732508643.2976935,0.142467529296875,0.2975130615234375,1.9303900146484376,-2.3394694656488553,-3.156202290076336,-0.2595839694656488,swipe_up
1732508643.330765,0.140270263671875,0.2823763427734375,1.9299017333984376,-4.744049618320611,-4.4081106870229005,-0.5191259541984733,swipe_up
1732508643.3638868,0.154918701171875,0.2916536865234375,1.9465032958984376,-4.637179389312977,-3.8813931297709923,0.9236221374045802,swipe_up
1732508643.3969648,0.136119873046875,0.2860384521484375,1.9284368896484376,-3.904354961832061,-4.003530534351145,0.10682824427480918,swipe_up
1732508643.4300299,0.147350341796875,0.2818880615234375,1.9247747802734376,-5.499774809160305,-2.331774809160305,-0.21378244274809158,swipe_up
1732508643.4630976,0.131481201171875,0.2826204833984375,1.9074407958984376,-6.507408396946565,-6.446278625954198,2.9007213740458018,swipe_up
1732508643.4962034,0.138317138671875,0.2613802490234375,1.9211126708984376,-13.553209923664122,-3.1104007633587782,1.977057251908397,swipe_up
1732508643.5292675,0.157848388671875,0.2611361083984375,1.9379583740234376,-13.163896946564885,-0.7821564885496184,0.33583587786259544,swipe_up
1732508643.5623422,0.152233154296875,0.2657747802734375,1.8927923583984376,-13.522675572519082,-0.621851145038168,1.0915610687022903,swipe_up
1732508643.5954192,0.159313232421875,0.23745446777343748,1.8937689208984376,-10.934889312977099,1.9506679389312978,3.282400763358779,swipe_up
1732508643.628471,0.135387451171875,0.24209313964843748,1.9169622802734376,-7.003591603053435,0.43921755725190836,1.2365992366412215,swipe_up
1732508643.6615367,0.135875732421875,0.2745638427734375,1.8881536865234376,-8.041759541984732,1.6605916030534351,1.6182786259541986,swipe_up
1732508643.6946084,0.156139404296875,0.24380212402343748,1.9020697021484376,-8.263133587786259,2.553721374045802,-0.4198893129770992,swipe_up
1732508643.7276676,0.157848388671875,0.22378259277343748,1.9023138427734376,-4.873820610687023,5.515553435114504,-2.8779045801526717,swipe_up
1732508643.760726,0.197155029296875,0.21450524902343748,1.9604193115234376,9.500225190839695,22.77509541984733,-0.8015687022900764,swipe_up
1732508643.7937965,0.206188232421875,-0.023043579101562517,2.2116400146484376,96.27121755725192,50.080438931297714,-21.007675572519087,swipe_up
1732508643.826858,0.222301513671875,0.13979821777343748,1.8957220458984376,208.538393129771,30.21020992366412,-33.305385496183206,swipe_up
1732508643.8599145,0.065563232421875,0.4071322021484375,1.8974310302734376,208.04984351145038,43.17204198473283,-17.297751908396947,swipe_up
1732508643.8929844,0.145153076171875,0.4549837646484375,2.1542669677734376,181.75213358778626,46.16440839694657,-34.366454198473285,swipe_up
1732508643.9260454,0.055553466796875,0.3758822021484375,2.3891302490234376,251.54602671755723,73.82853053435115,-24.07637786259542,swipe_up
1732508643.9591303,-0.042835205078125,0.8722200927734375,1.8971868896484376,208.82846946564885,47.53082061068702,-20.58782824427481,swipe_up
1732508643.9922009,-0.0037727050781250007,0.6344271240234375,2.4267279052734376,202.44679007633587,38.95830152671756,0.5953778625954199,swipe_up
1732508644.0252633,0.027233154296875,0.8043489990234375,2.3671575927734376,251.54602671755723,66.48501908396946,7.877820610687023,swipe_up
1732508644.058321,-0.224231689453125,1.1161165771484374,1.8739935302734376,243.88190458015268,-25.4081106870229,-13.57256106870229,swipe_up
1732508644.0914443,-0.040149658203125,1.0709505615234374,2.2194525146484376,214.72159923664123,-17.812690839694657,0.5724770992366413,swipe_up
1732508644.1245015,-0.027942626953125,1.3844271240234374,2.1335150146484376,239.71396564885495,6.714026717557252,-4.709965648854961,swipe_up
1732508644.1575618,0.0028190917968749993,1.6173372802734374,1.5866400146484376,180.56129389312977,-28.11040076335878,-10.656530534351145,swipe_up
1732508644.190629,0.075817138671875,1.4535189208984374,1.9611517333984376,143.60709541984733,5.133874045801527,8.92362213740458,swipe_up
1732508644.2236905,-0.031116455078125,1.7547884521484374,1.7968450927734376,143.56129389312977,-15.056965648854963,-1.4962251908396946,swipe_up
1732508644.2567496,0.131969482421875,1.8775911865234374,1.5817572021484376,102.01930916030535,18.439217557251908,-1.1145458015267173,swipe_up
1732508644.2898152,0.044322998046875,1.8334017333984374,1.6403509521484376,39.492591603053434,15.034637404580153,-0.7328664122137405,swipe_up
1732508644.3228803,-0.020130126953125,1.7430697021484374,1.8222357177734376,18.828469465648855,-0.03406488549618325,-0.1603473282442748,swipe_up
1732508644.355934,0.042369873046875,1.7616243896484374,1.8378607177734376,33.431522900763355,4.973568702290076,-1.9618740458015267,swipe_up
1732508644.3889976,0.0033073730468749993,1.8666048583984374,1.7123724365234376,8.210148854961833,12.06517175572519,-2.618362595419847,swipe_up
1732508644.4220712,-0.093128173828125,1.8153353271484374,1.7765814208984376,-5.400538167938931,-0.8661259541984734,-1.4962251908396946,swipe_up
1732508644.4551313,0.016246826171875,1.6878939208984374,1.9013372802734376,4.56892748091603,-2.2401717557251906,-3.23668320610687,swipe_up
1732508644.4881883,-0.018177001953125,1.8351107177734374,1.7380072021484376,3.9887748091603052,13.271278625954197,-2.7328664122137405,swipe_up
1732508644.5212545,-0.075061767578125,1.8072786865234374,1.7607122802734376,-12.713515267175572,8.5537213740458,1.3740038167938933,swipe_up
1732508644.5543156,0.008190185546875,1.6896029052734374,1.8930364990234376,2.8666374045801524,-6.904293893129771,-4.656530534351145,swipe_up
1732508644.5874245,0.006969482421874999,1.8319368896484374,1.7443548583984376,2.3017519083969464,1.477385496183206,-4.526759541984733,swipe_up
1732508644.6205184,-0.051868408203125,1.8182650146484374,1.7643743896484376,-10.377637404580152,-5.835591603053435,-2.671797709923664,swipe_up
1732508644.6535788,0.015514404296875,1.7027864990234374,1.8886419677734376,-1.3013015267175572,-0.0035305343511450814,-1.6336297709923664,swipe_up
1732508644.6866393,-0.016468017578125,1.7965364990234374,1.7670599365234376,1.9429732824427481,4.5918893129770995,-2.2595839694656488,swipe_up
1732508644.7197251,-0.063587158203125,1.8058138427734374,1.7929388427734376,-9.209698473282442,-12.179103053435115,-6.648896946564886,swipe_up
1732508644.752786,-0.008655517578125,1.7337923583984374,1.7997747802734376,-11.110461832061068,-0.8661259541984734,-1.4656908396946564,swipe_up
1732508644.7858467,-0.037219970703125,1.7723665771484374,1.8046575927734376,-2.0951946564885495,-4.57604961832061,-1.40462213740458,swipe_up
1732508644.818922,-0.010608642578125,1.7635775146484374,1.8420111083984376,-5.5990114503816795,-8.133301526717558,-2.6336297709923664,swipe_up
1732508644.8519824,-0.004016845703125001,1.7220736083984374,1.8825384521484376,-0.5837442748091602,-0.6065839694656489,-2.358820610687023,swipe_up
1732508644.8850431,-0.027454345703125,1.7809114990234374,1.8222357177734376,0.0727442748091604,3.9430343511450383,-1.6259961832061067,swipe_up
1732508644.9181147,-0.044300048828125,1.7887239990234374,1.8107611083984376,-7.4845076335877865,-5.988263358778625,-2.0611106870229006,swipe_up
1732508644.9511771,0.024303466796875,1.7337923583984374,1.8383489990234376,-4.530309160305344,2.599522900763359,-1.4733244274809159,swipe_up
1732508644.9842558,-0.018421142578125,1.7853060302734374,1.7887884521484376,0.8819045801526718,5.393416030534351,-4.419889312977099,swipe_up
1732508645.0173335,-0.058216064453125,1.7716341552734374,1.8095404052734376,-5.675347328244275,-3.7668893129770993,-3.6107290076335876,swipe_up
1732508645.0503955,-0.011341064453125,1.7455111083984374,1.8305364990234376,-7.324202290076336,-0.7134541984732825,-1.6946984732824426,swipe_up
1732508645.0834882,-0.034046142578125,1.7513704833984374,1.8586126708984376,-7.156263358778626,0.462118320610687,-2.3969885496183205,swipe_up
1732508645.1165826,-0.035999267578125,1.7601595458984374,1.8344427490234376,-6.43107251908397,-1.140935114503817,-2.603095419847328,swipe_up
1732508645.1496644,-0.026233642578125,1.7687044677734374,1.8351751708984376,-11.530309160305343,-0.988263358778626,-2.2519503816793893,swipe_up
1732508645.1827562,-0.042835205078125,1.7403841552734374,1.8559271240234376,-15.553209923664122,-9.667652671755725,-3.1756145038167936,swipe_up
1732508647.3082066,0.136852294921875,0.22012048339843748,1.8532415771484376,1.2406832061068702,-2.9729961832061065,3.5572099236641224,swipe_up
1732508647.341329,0.166149169921875,0.24136071777343748,1.8615423583984376,-1.5913778625954198,-4.461545801526717,5.007591603053435,swipe_up
1732508647.374463,0.166881591796875,0.22866540527343748,1.8468939208984376,-2.828019083969466,-4.049332061068702,3.6869809160305347,swipe_up
1732508647.4075942,0.188365966796875,0.21108728027343748,1.8410345458984376,-5.576110687022901,-0.5836832061068703,-1.0687442748091602,swipe_up
1732508647.4406607,0.166393310546875,0.18838220214843748,1.8444525146484376,-3.3852709923664124,1.9048664122137404,2.8472862595419848,swipe_up
1732508647.4737241,0.139049560546875,0.17153649902343748,1.8488470458984376,-3.072293893129771,1.1415076335877863,1.1526297709923665,swipe_up
1732508647.5067995,0.142223388671875,0.20180993652343748,1.8424993896484376,-1.7822175572519083,0.9048664122137404,-0.08401145038167937,swipe_up
1732508647.5398605,0.141002685546875,0.19448571777343748,1.8520208740234376,-1.3471030534351145,-0.2783396946564886,0.5037748091603054,swipe_up
1732508647.5729222,0.153453857421875,0.20351892089843748,1.8571478271484376,1.1490801526717558,-2.1104007633587782,-0.3435534351145038,swipe_up
1732508647.605997,0.165172607421875,0.22475915527343748,1.8371282958984376,-0.8509198473282442,-1.0875000000000001,-0.07637786259541983,swipe_up
1732508647.6390955,0.167614013671875,0.21230798339843748,1.8481146240234376,-2.041759541984733,0.14914122137404576,-0.4809580152671756,swipe_up
1732508647.672175,0.162975341796875,0.19302087402343748,1.8527532958984376,-0.1638969465648854,2.866698473282443,0.21369847328244276,swipe_up
1732508647.7052495,0.151500732421875,0.20766931152343748,1.8339544677734376,-0.3394694656488549,3.3705152671755725,-0.22141603053435113,swipe_up
1732508647.7383306,0.137828857421875,0.21523767089843748,1.8500677490234376,-0.6448129770992366,3.4773854961832065,-1.8092022900763358,swipe_up
1732508647.771412,0.155162841796875,0.18764978027343748,1.8637396240234376,0.01930916030534361,6.874332061068703,-4.221416030534351,swipe_up
1732508647.8044822,0.153697998046875,0.15493493652343748,1.9208685302734376,14.370454198473283,19.836164122137404,-4.122179389312977,swipe_up
1732508647.8375418,0.133434326171875,-0.05771154785156252,2.0844427490234376,87.90480534351146,25.317080152671753,-10.503858778625954,swipe_up
1732508647.8706033,0.102672607421875,0.2601595458984375,1.7702337646484376,125.23304961832062,18.637690839694656,-11.90843893129771,swipe_up
1732508647.9036744,0.209850341796875,0.3922396240234375,1.8891302490234376,100.22541603053436,35.00410305343512,-21.61072900763359,swipe_up
1732508647.9367354,0.173717529296875,0.18691735839843748,2.1899114990234376,122.27885114503817,52.68349236641222,-22.847370229007634,swipe_up
1732508647.9697943,0.080211669921875,-0.12265295410156252,2.4447943115234376,251.54602671755723,71.79799618320611,-38.26721755725191,swipe_up
1732508648.002888,-0.061389892578125,0.3685579833984375,2.1144720458984376,251.54602671755723,78.4773854961832,-39.190881679389314,swipe_up
1732508648.0359387,-0.048694580078125,0.12588220214843748,2.3246771240234376,251.54602671755723,95.53845419847329,40.79385114503817,swipe_up
1732508648.0690053,-0.143909423828125,0.8487825927734375,1.6283880615234376,251.54602671755723,86.49265267175572,88.45033969465649,swipe_up
1732508648.1020753,0.105358154296875,1.1754427490234374,2.0273138427734376,251.54602671755723,14.935400763358778,57.93125572519084,swipe_up
1732508648.13514,0.193004638671875,1.6388216552734374,1.5866400146484376,226.5765610687023,-13.545515267175574,6.152629770992367,swipe_up
1732508648.168198,0.077037841796875,1.8290072021484374,1.6501165771484376,128.3093854961832,-80.27070610687022,-39.82446946564885,swipe_up
1732508648.2012658,0.220592529296875,1.6834993896484374,1.7682806396484376,97.47732442748092,-27.4844465648855,-19.183248091603055,swipe_up
1732508648.2343283,0.088024169921875,1.7506380615234374,1.7614447021484376,95.5002251908397,-19.469179389312977,-14.847370229007634,swipe_up
1732508648.2674181,0.119518310546875,1.5147982177734374,1.9906927490234376,118.56129389312977,15.72929389312977,-6.877904580152672,swipe_up
1732508648.3004825,-0.050891845703125,1.8458529052734374,1.6911322021484376,88.04220992366413,30.599522900763358,2.7404160305343512,swipe_up
1732508648.3335407,-0.089221923828125,1.8243685302734374,1.7873236083984376,54.15671374045801,-3.232538167938931,-6.870270992366412,swipe_up
1732508648.3666012,0.016002685546875,1.7669954833984374,1.7538763427734376,43.118545801526714,6.095706106870229,-3.1832480916030534,swipe_up
1732508648.3996735,-0.010852783203125,1.9027376708984374,1.6579290771484376,21.95824045801527,11.347614503816793,4.144996183206107,swipe_up
1732508648.4327285,-0.0005988769531250007,1.8683138427734374,1.6982122802734376,6.874270992366412,13.981202290076336,3.641179389312977,swipe_up
1732508648.465783,0.092662841796875,1.7745638427734374,1.7362982177734376,20.057477099236642,11.859064885496183,-7.244316793893129,swipe_up
1732508648.4988534,-0.024036376953125,2.0313997802734374,1.5417181396484376,-15.629545801526717,12.370515267175572,-7.305385496183206,swipe_up
1732508648.531985,-0.033313720703125,1.7367220458984374,1.8337103271484376,-34.438706106870235,-4.698187022900763,-10.335919847328244,swipe_up
1732508648.5650566,0.034313232421875,1.6900911865234374,1.8295599365234376,6.500225190839695,5.675858778625955,-7.549660305343512,swipe_up
1732508648.5981672,-0.077747314453125,1.9051790771484374,1.6750189208984376,-12.278400763358778,4.58425572519084,-4.671797709923664,swipe_up
1732508648.6297703,-0.044300048828125,1.7301302490234374,1.8996282958984376,-18.76695038167939,-3.736354961832061,-7.4580572519083965,swipe_up
1732508648.6613657,-0.057483642578125,1.7418489990234374,1.8156439208984376,-3.377637404580153,0.0651717557251908,-0.8702709923664121,swipe_up
1732508648.6929922,-0.044544189453125,1.8150911865234374,1.7619329833984376,-10.469240458015266,-4.553148854961832,0.8778206106870229,swipe_up
1732508648.7256107,-0.007923095703125,1.7779818115234374,1.8202825927734376,-19.873820610687023,-4.789790076335878,-0.7634007633587786,swipe_up
1732508648.7586696,-0.018909423828125,1.7923861083984374,1.7821966552734376,-17.08756106870229,-3.8126908396946564,-1.038209923664122,swipe_up
1732508648.7917407,-0.013538330078125,1.8634310302734374,1.7074896240234376,-43.41580534351145,-4.339408396946565,-1.0305763358778626,swipe_up
1732508648.8248072,-0.025012939453125,1.8077669677734374,1.7812200927734376,-66.00359160305344,-24.4081106870229,-10.771034351145039,swipe_up
1732508648.8578641,-0.011341064453125,1.6615267333984374,1.8617864990234376,-54.68298091603054,-3.652385496183206,-4.465690839694656,swipe_up
1732508648.8909228,-0.062366455078125,1.9503450927734374,1.5712591552734376,-111.8203854961832,8.645324427480915,13.030492366412213,swipe_up
1732508648.923946,-0.024768798828125,1.8209505615234374,1.7392279052734376,-218.16389694656488,-18.25543893129771,-3.0305763358778623,swipe_up
1732508648.9570048,0.187145263671875,1.1854525146484374,2.2648626708984376,-110.38527099236642,-40.736354961832056,-31.221416030534353,swipe_up
1732508648.990061,-0.126819580078125,1.6351595458984374,1.8422552490234376,-134.2173320610687,10.347614503816793,10.328202290076336,swipe_up
1732508649.0231335,-0.026477783203125,1.4200716552734374,2.0688177490234376,-155.3089351145038,-59.22490458015267,-16.030576335877864,swipe_up
1732508649.056185,0.215709716796875,1.1212435302734374,2.2885443115234376,-145.9730572519084,13.5537213740458,14.412171755725192,swipe_up
1732508649.0892467,-0.107532470703125,1.3629427490234374,1.9762884521484376,-165.24023282442747,13.851431297709922,18.999958015267175,swipe_up
1732508649.1223485,-0.091175048828125,1.3150911865234374,1.9267279052734376,-237.43107251908395,-39.09513358778626,8.877820610687023,swipe_up
1732508649.1554096,0.307994873046875,0.7794466552734375,2.4640814208984376,-193.63717938931296,-40.69818702290076,-31.687064885496184,swipe_up
1732508649.1884792,0.087047607421875,0.8104525146484375,2.2218939208984376,-119.54557633587785,-3.2096374045801523,-31.801568702290076,swipe_up
1732508649.2215493,-0.093616455078125,0.8893099365234375,2.0478216552734376,-162.07229389312977,-28.148568702290078,1.6182786259541986,swipe_up
1732508649.254612,0.138805419921875,0.6764193115234375,2.1491400146484376,-196.11809541984732,-22.171469465648855,2.76331679389313,swipe_up
1732508649.2876694,0.195201904296875,0.2958040771484375,2.4447943115234376,-114.71351526717557,-23.835591603053437,-9.122179389312977,swipe_up
1732508651.9279444,0.115612060546875,0.21889978027343748,1.8666693115234376,-2.942522900763359,-2.705820610687023,0.8243854961832061,swipe_up
1732508651.9610274,0.124645263671875,0.21035485839843748,1.8730169677734376,-1.354736641221374,-2.568416030534351,1.144996183206107,swipe_up
1732508651.9940958,0.104381591796875,0.21938806152343748,1.8508001708984376,-3.072293893129771,-0.8355916030534352,0.4961412213740458,swipe_up
1732508652.027191,0.114147216796875,0.20962243652343748,1.8678900146484376,-1.9501564885496183,0.5537213740458015,0.625912213740458,swipe_up
1732508652.0602462,0.116588623046875,0.21865563964843748,1.8508001708984376,-2.995958015267176,0.42395038167938925,1.961790076335878,swipe_up
1732508652.0932693,0.112926513671875,0.24502282714843748,1.8444525146484376,-5.957790076335878,3.0270038167938935,1.961790076335878,swipe_up
1732508652.1263473,0.103893310546875,0.21401696777343748,1.8730169677734376,-3.7135152671755725,0.05753816793893125,0.3663702290076336,swipe_up
1732508652.1594286,0.109264404296875,0.20669274902343748,1.8725286865234376,-4.278400763358778,-0.6676526717557252,0.5343091603053435,swipe_up
1732508652.192487,0.113414794921875,0.21304040527343748,1.8486029052734376,-3.4997748091603054,-0.904293893129771,0.22896564885496185,swipe_up
1732508652.2255597,0.107799560546875,0.22597985839843748,1.8383489990234376,-4.507408396946565,0.25601145038167933,-1.1756145038167938,swipe_up
1732508652.2586222,0.114635498046875,0.20889001464843748,1.8637396240234376,-3.370003816793893,1.0880725190839695,0.26713358778625956,swipe_up
1732508652.2916808,0.110729248046875,0.19131188964843748,1.8307806396484376,-6.606645038167939,3.797996183206107,2.2518664122137406,swipe_up
1732508652.3247504,0.092662841796875,0.20351892089843748,1.8591009521484376,-9.8967213740458,3.6224236641221377,2.8854541984732824,swipe_up
1732508652.3578014,0.109264404296875,0.18764978027343748,1.8571478271484376,-3.2631335877862595,4.042270992366412,-0.23668320610687021,swipe_up
1732508652.3908646,0.096569091796875,0.21743493652343748,1.8588568115234376,-1.1791641221374045,2.202576335877863,0.12209541984732826,swipe_up
1732508652.4240406,0.117809326171875,0.18984704589843748,1.8534857177734376,0.9429732824427481,4.904866412213741,-1.8626374045801526,swipe_up
1732508652.4572837,0.138805419921875,0.21767907714843748,1.8610540771484376,2.942973282442748,14.89723282442748,-9.358820610687022,swipe_up
1732508652.490362,0.276744873046875,-0.4898404541015625,2.5463568115234376,178.33991984732825,56.42395038167939,-51.88553816793893,swipe_up
1732508652.5230706,-0.102405517578125,-0.5413541259765625,2.2682806396484376,251.54602671755723,93.81326335877863,-39.52675954198473,swipe_up
1732508652.5546677,0.027233154296875,-0.05478186035156252,1.7795111083984376,251.54602671755723,151.8895992366412,-25.877904580152673,swipe_up
1732508652.5862632,0.004528076171874999,0.2621126708984375,1.8378607177734376,251.54602671755723,224.5918893129771,107.27476717557252,swipe_up
1732508652.6178586,-0.053577392578125,1.2652864990234374,1.6559759521484376,251.54602671755723,102.32471374045802,121.9007213740458,swipe_up
1732508652.6509223,0.035289794921875,1.7513704833984374,1.2948919677734376,230.18724809160307,-48.91192748091603,25.41980534351145,swipe_up
1732508652.6839795,-0.025257080078125,1.6734896240234374,1.7196966552734376,100.26358396946566,-89.59131679389313,-29.984774809160307,swipe_up
1732508652.7170453,-0.0015754394531250007,1.8282747802734374,1.6537786865234376,32.179614503816794,-68.32414122137405,-27.259583969465652,swipe_up
1732508652.7501085,0.073864013671875,1.5731478271484374,1.8984075927734376,63.67579770992367,8.172041984732823,11.885454198473283,swipe_up
1732508652.783168,-0.016712158203125,1.6883822021484374,1.8647161865234376,83.00404198473282,9.301812977099235,17.274767175572517,swipe_up
1732508652.816224,-0.0023078613281250007,1.6505404052734374,1.9843450927734376,83.50785877862596,-2.0722328244274806,5.3205687022900765,swipe_up
1732508652.8492913,0.010387451171875,1.6459017333984374,1.9736029052734376,62.713965648854966,-22.049332061068704,-11.687064885496182,swipe_up
1732508652.8823493,-0.041126220703125,1.7921419677734374,1.8178411865234376,43.87427099236641,-23.61421755725191,-13.465690839694656,swipe_up
1732508652.9154086,-0.0035285644531250007,1.6947298583984374,1.8654486083984376,44.171980916030535,-1.3088740458015267,-1.419889312977099,swipe_up
1732508652.9484735,-0.023548095703125,1.6949739990234374,1.8998724365234376,62.439156488549614,-1.3165076335877863,-1.1985152671755723,swipe_up
1732508652.9815297,-0.028675048828125,1.6996126708984374,1.8830267333984376,67.92007251908397,8.74456106870229,-0.8244694656488549,swipe_up
1732508653.0146196,-0.053577392578125,1.8214388427734374,1.6908880615234376,43.81320229007633,2.57662213740458,3.8167519083969466,swipe_up
1732508653.047688,0.004528076171874999,1.8375521240234374,1.7111517333984376,37.294118320610686,4.103339694656489,-0.3435534351145038,swipe_up
1732508653.0807443,-0.018909423828125,1.8690462646484374,1.6757513427734376,27.73686641221374,0.7521946564885496,-0.5191259541984733,swipe_up
1732508653.1138022,0.006481201171874999,1.8680697021484374,1.6520697021484376,14.446790076335878,16.301812977099235,6.816751908396947,swipe_up
1732508653.1468754,-0.022571533203125,1.9186068115234374,1.6383978271484376,6.026942748091603,-5.171469465648855,-7.06874427480916,swipe_up
1732508653.1799226,0.011852294921875,1.8021517333984374,1.7375189208984376,2.0651106870229006,0.8743320610687022,-5.771034351145038,swipe_up
1732508653.2129807,-0.077991455078125,1.8685579833984374,1.6864935302734376,-8.553209923664122,3.8514312977099237,0.5572099236641221,swipe_up
1732508653.2460508,-0.045764892578125,1.8746614990234374,1.6845404052734376,-11.377637404580152,0.5766221374045801,-0.35118702290076337,swipe_up
1732508653.279115,-0.013782470703125,1.8492708740234374,1.7275091552734376,-13.194431297709922,-2.965362595419847,-6.3359198473282445,swipe_up
1732508653.3121717,-0.039905517578125,1.7967806396484374,1.7568060302734376,-9.782217557251908,-1.2936068702290078,-5.022942748091603,swipe_up
1732508653.3452506,-0.046253173828125,1.7962923583984374,1.7602239990234376,0.1261793893129772,-0.40047709923664127,-4.290118320610687,swipe_up
1732508653.3783195,-0.060657470703125,1.8617220458984374,1.7284857177734376,-10.59901145038168,0.9735687022900763,-2.488591603053435,swipe_up
1732508653.411414,-0.034778564453125,1.7726107177734374,1.7865911865234376,0.9048053435114505,4.652958015267176,-0.15271374045801525,swipe_up
1732508653.4444838,-0.046253173828125,1.8856478271484374,1.6728216552734376,-5.247866412213741,0.13387404580152668,0.061026717557251926,swipe_up
1732508653.4775472,-0.009387939453125,1.7696810302734374,1.7848822021484376,-7.072293893129771,-1.9577290076335876,-2.6488969465648853,swipe_up
1732508653.5106304,-0.044300048828125,1.7923861083984374,1.7861029052734376,-0.39290458015267166,-2.2401717557251906,-4.2290496183206105,swipe_up
1732508653.5437028,-0.052356689453125,1.8707552490234374,1.7111517333984376,-6.59137786259542,-0.6142175572519084,-2.1527137404580152,swipe_up
1732508653.576762,-0.062854736328125,1.8778353271484374,1.6615911865234376,-26.476874045801527,-3.7745229007633587,-1.122179389312977,swipe_up
1732508653.6098337,-0.032825439453125,1.8158236083984374,1.7362982177734376,-38.23259923664122,-13.889026717557252,-5.152713740458015,swipe_up
1732508653.6429064,-0.022571533203125,1.8392611083984374,1.7306829833984376,-48.14099618320611,-9.858492366412214,-4.473324427480916,swipe_up
1732508653.6759677,-0.017688720703125,1.8810091552734374,1.6835638427734376,-72.17153053435113,2.6911259541984736,5.083927480916031,swipe_up
1732508653.7090178,-0.051868408203125,1.7928743896484374,1.7861029052734376,-97.3471030534351,-47.00353053435114,-25.92370610687023,swipe_up
1732508653.7420914,0.087780029296875,1.4908724365234374,2.0695501708984376,-61.66008015267176,-31.347041984732822,-25.4198893129771,swipe_up
1732508653.7751546,-0.074085205078125,1.6214876708984374,1.9552923583984376,-37.079927480916034,4.782729007633588,-0.6488969465648855,swipe_up
1732508653.8082118,-0.097766845703125,1.7923861083984374,1.8290716552734376,-73.18679770992367,9.988835877862595,16.610645038167938,swipe_up
1732508653.841282,-0.016712158203125,1.7364779052734374,1.8493353271484376,-118.40053816793893,2.24837786259542,-5.992408396946565,swipe_up
1732508653.8743417,0.051891357421875,1.5399447021484374,1.9413763427734376,-108.57611068702289,-0.11803435114503821,-19.46569083969466,swipe_up
1732508653.9074085,-0.122180908203125,1.7484407958984374,1.5661322021484376,-193.1944312977099,0.462118320610687,-5.221416030534351,swipe_up
1732508659.8749213,-0.011341064453125,0.8724642333984375,2.2492376708984376,4.9582404580152675,-3.896660305343511,1.175530534351145,swipe_down
1732508659.9080067,0.007701904296874999,0.8761263427734375,2.2267767333984376,9.75976717557252,-1.2630725190839696,3.5801106870229007,swipe_down
1732508659.9410849,0.019176513671875,0.8832064208984375,2.2170111083984376,13.462057251908398,-4.9729961832061065,-1.5801946564885494,swipe_down
1732508659.9741654,0.017711669921875,0.8780794677734375,2.2426458740234376,13.40098854961832,-3.5073473282442746,0.4198053435114504,swipe_down
1732508660.0072358,0.022350341796875,0.8968782958984375,2.2438665771484376,15.713965648854963,-2.0111641221374046,2.2900343511450383,swipe_down
1732508660.0402982,0.050670654296875,0.9408236083984375,2.2089544677734376,16.820835877862596,2.2102099236641224,-0.9695076335877862,swipe_down
1732508660.0733776,0.047496826171875,0.9508333740234375,2.2187200927734376,15.645263358778626,-2.8813931297709923,-6.038209923664122,swipe_down
1732508660.106443,0.029430419921875,0.9325228271484375,2.2204290771484376,19.43152290076336,-4.705820610687023,-4.694698473282442,swipe_down
1732508660.1395302,0.019420654296875,0.9813509521484375,2.1757513427734376,14.332286259541986,-3.805057251908397,-4.771034351145038,swipe_down
1732508660.1726036,0.022106201171875,0.9537630615234375,2.2004095458984376,6.866637404580152,0.1186068702290076,-0.7023320610687023,swipe_down
1732508660.2056675,0.016979248046875,0.9637728271484375,2.2177435302734376,0.9811412213740459,1.378148854961832,-0.8855381679389313,swipe_down
1732508660.2387722,0.050182373046875,0.9510775146484375,2.2431341552734376,0.04220992366412224,1.1262404580152672,-2.4275229007633587,swipe_down
1732508660.2718406,0.042369873046875,0.9652376708984375,2.2345892333984376,1.546026717557252,6.714026717557252,-5.40462213740458,swipe_down
1732508660.3049216,0.070201904296875,0.9732943115234375,2.2145697021484376,0.011675572519084068,4.75219465648855,-10.801568702290076,swipe_down
1732508660.3380027,0.044811279296875,0.9837923583984375,2.1759954833984376,-6.980690839694657,6.156774809160305,-12.694698473282443,swipe_down
1732508660.3710935,-0.0032844238281250007,0.9708529052734375,2.1833197021484376,-17.110461832061066,-4.026431297709924,-10.045843511450382,swipe_down
1732508660.404161,-0.0015754394531250007,0.9762239990234375,2.1501165771484376,-28.255499999999998,-8.850858778625955,-8.4198893129771,swipe_down
1732508660.4372559,0.010875732421875,1.0069857177734374,1.9748236083984376,-75.69824809160305,-13.957729007633588,-8.183248091603053,swipe_down
1732508660.4703333,0.039928466796875,1.0057650146484374,1.8866888427734376,-162.95779007633587,-2.8584923664122135,2.664080152671756,swipe_down
1732508660.5035195,0.087535888671875,1.1593294677734374,1.3923040771484376,-248.72114885496183,-69.33940839694657,28.519041984732823,swipe_down
1732508660.5366063,0.151744873046875,0.8309603271484375,0.7682806396484376,-248.72114885496183,-93.45391221374045,92.22896564885497,swipe_down
1732508660.5696783,0.276256591796875,-0.3189420166015625,1.2985540771484376,-248.72114885496183,44.85906488549619,-30.755767175572522,swipe_down
1732508660.602758,0.195201904296875,-0.8260220947265625,1.6513372802734376,-248.72114885496183,112.11860687022902,-141.08401145038167,swipe_down
1732508660.6358309,-0.233020751953125,-0.8028287353515625,1.5739447021484376,-248.72114885496183,87.21784351145038,3.9694236641221377,swipe_down
1732508660.6689343,-0.118762939453125,-0.5164517822265625,1.3778997802734376,-168.94252290076335,17.93540076335878,33.190797709923665,swipe_down
1732508660.7019906,0.255748779296875,-0.14828771972656252,1.2646185302734376,-134.62191221374044,16.71402671755725,3.305301526717557,swipe_down
1732508660.7350934,0.238170654296875,-0.18612951660156252,1.2773138427734376,-91.42343893129771,50.68349236641222,-20.992408396946566,swipe_down
1732508660.7681766,0.044078857421875,-0.24106115722656252,1.2060247802734376,-58.12572900763359,23.70639312977099,-1.5801946564885494,swipe_down
1732508660.801235,0.068492919921875,-0.10263342285156252,1.0158392333984376,-45.2173320610687,-24.537881679389315,8.480874045801526,swipe_down
1732508660.8343253,0.190807373046875,-0.05478186035156252,0.9538275146484376,-20.599011450381678,-9.324141221374047,1.977057251908397,swipe_down
1732508660.8674097,0.161266357421875,-0.04721350097656252,0.8945013427734376,-7.606645038167939,12.805629770992367,-7.74813358778626,swipe_down
1732508660.9004672,0.051403076171875,-0.06943029785156252,0.9240423583984376,-6.866187022900763,-0.07223282442748095,6.893087786259542,swipe_down
1732508660.9335287,0.106090576171875,-0.006442016601562517,0.9772650146484376,-9.179164122137404,-11.148568702290078,7.473240458015267,swipe_down
1732508660.9666023,0.178600341796875,0.010647827148437483,1.0221868896484376,6.591828244274809,-0.8126908396946565,-2.9160725190839694,swipe_down
1732508660.9996586,0.112926513671875,0.04092126464843748,0.9679876708984376,3.3780877862595418,2.126240458015267,-4.496225190839694,swipe_down
1732508661.032715,0.104869873046875,0.014309936523437483,0.9911810302734376,1.0422099236641222,8.37814885496183,6.0991946564885495,swipe_down
1732508661.0657816,0.163707763671875,-0.024020141601562517,0.9848333740234376,9.454423664122139,5.935400763358778,-1.419889312977099,swipe_down
1732508661.0988414,0.134655029296875,0.005765014648437483,0.9623724365234376,12.26358396946565,3.3399809160305347,-4.480958015267175,swipe_down
1732508661.131896,0.083873779296875,0.08681970214843748,0.8910833740234376,-3.637179389312977,0.5002862595419847,3.8930877862595423,swipe_down
1732508661.1649582,0.141002685546875,-0.04696936035156252,0.9894720458984376,-1.1944312977099236,1.645324427480916,0.5572099236641221,swipe_down
1732508661.1980188,0.131725341796875,-0.11557287597656252,1.0898138427734376,28.23304961832061,16.691125954198473,-3.3511870229007634,swipe_down
1732508661.2310798,0.102672607421875,-0.13168615722656252,1.1420599365234376,80.42388931297711,15.698759541984732,-4.923706106870229,swipe_down
1732508661.2641668,0.161754638671875,-0.17196936035156252,1.1842962646484376,134.94297328244275,19.179675572519084,-1.3893549618320609,swipe_down
1732508661.297233,0.194957763671875,-0.20639318847656252,1.3061224365234376,189.8208358778626,70.48501908396946,6.3205687022900765,swipe_down
1732508661.330327,0.118053466796875,-0.22104162597656252,1.4247747802734376,251.54602671755723,38.55372137404581,15.450339694656488,swipe_down
1732508661.363433,0.094371826171875,-0.15024084472656252,1.4528509521484376,246.6147290076336,-5.0798664122137405,22.396904580152672,swipe_down
1732508661.3965113,0.122203857421875,-0.09091467285156252,1.5114447021484376,222.0803778625954,-2.5455152671755723,26.71751526717557,swipe_down
1732508661.4295726,0.066051513671875,-0.08041662597656252,1.7028509521484376,224.62999618320612,14.981202290076336,31.267133587786258,swipe_down
1732508661.4626365,-0.014759033203125,-0.04086584472656252,1.8737493896484376,237.58419465648856,3.8056297709923665,43.61064503816794,swipe_down
1732508661.4957085,0.005016357421874999,0.014798217773437483,1.8193060302734376,251.54602671755723,-4.217270992366412,54.58774427480916,swipe_down
1732508661.5287645,0.013072998046875,0.3624544677734375,1.7206732177734376,242.27885114503817,-49.23253816793893,35.10682824427481,swipe_down
1732508661.5618432,0.041149169921875,0.3959017333984375,1.8644720458984376,207.60709541984733,-22.63711832061069,40.29003435114504,swipe_down
1732508661.5949175,0.060436279296875,0.6097689208984375,1.9025579833984376,179.7292328244275,5.225477099236642,39.51904198473282,swipe_down
1732508661.6279757,0.121471435546875,0.8045931396484375,1.9233099365234376,129.9735076335878,-34.39284351145038,5.748049618320611,swipe_down
1732508661.6610308,0.075817138671875,0.7315950927734375,2.1818548583984376,115.88190458015268,-28.812690839694657,24.56484351145038,swipe_down
1732508661.6940985,0.063854248046875,0.8014193115234375,2.1530462646484376,120.16434732824428,-0.171469465648855,27.511408396946564,swipe_down
1732508661.727156,0.131969482421875,0.9896517333984375,1.9870306396484376,89.8590038167939,-36.82795801526717,6.274767175572519,swipe_down
1732508661.7602103,0.111461669921875,0.8414583740234375,2.2338568115234376,80.75976717557252,19.027003816793894,22.503774809160305,swipe_down
1732508661.79329,-0.0030402832031250007,1.0472689208984374,2.0651556396484376,72.99640839694656,-4.369942748091603,15.030492366412213,swipe_down
1732508661.8263505,0.112194091796875,1.0790072021484374,2.0968939208984376,38.973507633587786,-23.72108778625954,9.480874045801526,swipe_down
1732508661.8594127,0.165172607421875,1.0772982177734374,2.1525579833984376,8.782667938931299,5.309446564885496,12.572477099236641,swipe_down
1732508664.2747889,0.074596435546875,0.9691439208984375,2.2262884521484376,-0.0035916030534350156,-0.27070610687022906,2.1755305343511453,swipe_down
1732508664.3078635,0.097545654296875,0.9767122802734375,2.2267767333984376,-0.08756106870228998,0.5155534351145038,0.8472862595419848,swipe_down
1732508664.3409524,0.096813232421875,0.9759798583984375,2.2343450927734376,-0.4692404580152671,0.3476145038167939,-1.671797709923664,swipe_down
1732508664.374021,0.087535888671875,0.9845247802734375,2.2113958740234376,0.5765610687022902,2.0193702290076336,0.8320190839694657,swipe_down
1732508664.4071221,0.099010498046875,0.9825716552734375,2.2187200927734376,1.797935114503817,2.8895992366412218,0.3663702290076336,swipe_down
1732508664.4403267,0.081676513671875,0.9855013427734375,2.1884466552734376,-0.02649236641221364,0.1186068702290076,-1.7634007633587785,swipe_down
1732508664.473418,0.079479248046875,0.9874544677734375,2.2101751708984376,-0.8814541984732823,1.5995229007633587,-1.2290496183206105,swipe_down
1732508664.506485,0.078014404296875,0.9840364990234375,2.2187200927734376,-0.12572900763358769,3.164408396946565,-1.9008053435114503,swipe_down
1732508664.5395439,0.101696044921875,0.9698763427734375,2.2404486083984376,-1.0112251908396945,1.6071564885496183,-1.0000419847328244,swipe_down
1732508664.5726154,0.089244873046875,0.9786654052734375,2.2365423583984376,0.3780877862595421,2.797996183206107,-0.8092022900763358,swipe_down
1732508664.6056733,0.077037841796875,0.9918489990234375,2.2067572021484376,0.5918282442748093,1.7521946564885496,-0.4580572519083969,swipe_down
1732508664.6387665,0.084850341796875,0.9801302490234375,2.2192083740234376,-1.6753473282442748,1.0499045801526716,-1.954240458015267,swipe_down
1732508664.6718366,0.088024169921875,0.9698763427734375,2.2294622802734376,-2.041759541984733,1.9888358778625956,-1.419889312977099,swipe_down
1732508664.7049186,0.058239013671875,0.9933138427734375,2.1925970458984376,-1.9272557251908395,0.9735687022900763,-1.1908816793893129,swipe_down
1732508664.7380018,0.083141357421875,0.9908724365234375,2.1938177490234376,-7.8203854961832056,-1.9882633587786258,-1.3740877862595418,swipe_down
1732508664.7710927,0.131481201171875,1.0721712646484374,1.5805364990234376,-104.31656870229007,20.446851145038167,6.488507633587786,swipe_down
1732508664.8041685,-0.127063720703125,1.2279329833984374,1.1618353271484376,-248.72114885496183,-38.37757633587786,68.22896564885497,swipe_down
1732508664.8372533,0.211803466796875,0.9334993896484375,1.2406927490234376,-248.72114885496183,-119.99589694656488,26.664080152671755,swipe_down
1732508664.8703501,0.390026123046875,0.5943880615234375,0.5009466552734376,-248.72114885496183,-69.40047709923664,-29.030576335877864,swipe_down
1732508664.9034138,0.064342529296875,-0.08652014160156252,-0.057402954101562376,-248.72114885496183,94.3857824427481,12.809118320610688,swipe_down
1732508664.9365015,0.058727294921875,-1.0332974853515626,1.3171087646484376,-248.72114885496183,251.45448473282443,-67.21378244274808,swipe_down
1732508664.9695756,-0.294055908203125,-1.0332974853515626,2.9023138427734376,-248.04939312977098,61.47738549618321,-19.908438931297713,swipe_down
1732508665.002667,-0.112903564453125,-0.8194302978515625,1.0756536865234376,-22.713515267175573,-138.3928435114504,52.763316793893125,swipe_down
1732508665.03573,0.199840576171875,0.7818880615234375,0.3439642333984376,-87.7822175572519,-138.4844465648855,37.267133587786255,swipe_down
1732508665.0688007,0.551158935546875,0.19180017089843748,1.0863958740234376,-51.10282824427481,27.469751908396947,-17.61836259541985,swipe_down
1732508665.1018662,0.236461669921875,-0.14389318847656252,1.1486517333984376,-8.91198854961832,52.6300572519084,-14.801568702290076,swipe_down
1732508665.1349308,-0.015491455078125,-0.11874670410156252,0.9909368896484376,-17.973057251908397,19.74456106870229,8.335835877862596,swipe_down
1732508665.1680012,0.116832763671875,-0.012057250976562517,1.0470892333984376,-9.026492366412214,-13.60658396946565,7.4274389312977105,swipe_down
1732508665.201062,0.199840576171875,0.09023767089843748,0.8420111083984376,9.164347328244276,3.9430343511450383,-4.4504236641221375,swipe_down
1732508665.2341235,0.100963623046875,-0.008151000976562517,0.8603216552734376,4.4009885496183205,24.317080152671753,-5.290118320610687,swipe_down
1732508665.267194,0.070446044921875,-0.07431311035156252,0.9174505615234376,8.599461832061069,9.691125954198473,1.9083549618320612,swipe_down
1732508665.300252,0.134166748046875,0.028470092773437483,0.8925482177734376,10.92770610687023,-0.14856870229007638,2.664080152671756,swipe_down
1732508665.3333104,0.172496826171875,0.05849938964843748,0.9467474365234376,7.431522900763358,6.607156488549618,1.2060648854961833,swipe_down
1732508665.366448,0.187633544921875,-0.05527014160156252,1.0024114990234376,19.400988549618322,15.485019083969465,-9.57256106870229,swipe_down
1732508665.3995192,0.115856201171875,-0.03744787597656252,1.0143743896484376,34.68343129770992,14.607156488549618,0.4198053435114504,swipe_down
1732508665.4326065,0.162975341796875,-9.436035156251688e-05,0.9728704833984376,42.72923282442748,12.217843511450381,-1.3130190839694655,swipe_down
1732508665.4660122,0.213024169921875,-0.15048498535156252,1.1503607177734376,87.95060687022901,35.637690839694656,-9.328286259541985,swipe_down
1732508665.4990776,0.172740966796875,-0.16391271972656252,1.1742864990234376,141.56892748091605,35.03463740458015,-11.442790076335879,swipe_down
1732508665.5321922,0.120739013671875,-0.09848303222656252,1.1547552490234376,131.27885114503817,42.874332061068706,4.618278625954199,swipe_down
1732508665.5652578,0.120250732421875,-0.06210607910156252,1.2902532958984376,128.1032786259542,50.77509541984733,16.969423664122136,swipe_down
1732508665.5983183,0.148082763671875,-0.05087561035156252,1.3639837646484376,146.18724809160307,28.286545801526717,16.244232824427478,swipe_down
1732508665.6313965,0.099742919921875,-0.07211584472656252,1.4809271240234376,147.35518702290076,11.927767175572518,12.122095419847328,swipe_down
1732508665.6644533,0.064342529296875,-0.08700842285156252,1.5197454833984376,150.2941183206107,2.500286259541985,19.496141221374046,swipe_down
1732508665.6975243,0.080211669921875,-0.04599279785156252,1.5942083740234376,156.538393129771,-11.011164122137405,24.03812595419847,swipe_down
1732508665.7305827,0.121959716796875,0.027005249023437483,1.5651556396484376,153.2177824427481,-4.507347328244275,20.969423664122136,swipe_down
1732508665.7636425,0.081432373046875,0.09438806152343748,1.5990911865234376,142.0651106870229,-3.8279580152671753,15.809118320610686,swipe_down
1732508665.7967072,0.080211669921875,0.20791345214843748,1.6471868896484376,111.69106488549619,-5.072232824427481,24.94652290076336,swipe_down
1732508665.829767,0.077770263671875,0.21523767089843748,1.7936712646484376,97.01930916030535,-3.102767175572519,17.610645038167938,swipe_down
1732508665.8628218,0.047740966796875,0.23086267089843748,1.9211126708984376,104.1032786259542,-14.690553435114504,16.457973282442747,swipe_down
1732508665.8958817,0.069713623046875,0.2748079833984375,1.8945013427734376,104.4620572519084,-12.705820610687024,15.167896946564886,swipe_down
1732508665.9289308,0.064830810546875,0.2853060302734375,1.9787298583984376,104.31701908396947,-0.438645038167939,24.03812595419847,swipe_down
1732508665.9620137,0.075084716796875,0.3399935302734375,2.0346380615234376,113.76740076335878,-3.6218511450381676,14.206064885496183,swipe_down
1732508665.9950762,0.102916748046875,0.4151888427734375,2.0251165771484376,122.1796145038168,-7.721087786259542,1.1526297709923665,swipe_down
1732508666.0281456,0.067760498046875,0.5155306396484375,1.9843450927734376,99.75976717557252,4.1415076335877865,12.5801106870229,swipe_down
1732508666.0612292,0.058971435546875,0.5392122802734375,2.0993353271484376,85.62999618320612,24.149141221374045,17.76331679389313,swipe_down
1732508666.0943253,0.048717529296875,0.6161165771484375,2.0680853271484376,96.87427099236642,-5.91956106870229,-6.847370229007633,swipe_down
1732508666.127393,-0.014514892578125,0.6029329833984375,2.2140814208984376,91.94297328244275,7.40868320610687,10.984690839694657,swipe_down
1732508666.1604528,0.050182373046875,0.6078157958984375,2.2101751708984376,87.92007251908397,28.133874045801527,30.648812977099237,swipe_down
1732508666.1935263,-0.035755126953125,0.7438021240234375,2.1425482177734376,101.90480534351146,-17.560782442748092,7.473240458015267,swipe_down
1732508666.226579,0.0008659667968749993,0.7657747802734375,2.1869818115234376,99.66816412213741,-25.11040076335878,15.09919465648855,swipe_down
1732508666.259626,0.081676513671875,0.8290072021484375,2.1366888427734376,83.91243893129771,12.943034351145037,23.618278625954197,swipe_down
1732508668.073937,-0.004505126953125001,0.8995638427734375,2.2091986083984376,0.04220992366412224,-0.5989503816793894,0.16789694656488552,swipe_down
1732508668.1070266,-0.004993408203125001,0.9037142333984375,2.2253118896484376,-0.2554999999999999,0.23311068702290072,2.442706106870229,swipe_down
1732508668.1400914,0.009899169921875,0.8946810302734375,2.2121282958984376,2.309385496183206,-0.904293893129771,-1.2137824427480914,swipe_down
1732508668.1731713,-0.0027961425781250007,0.8907747802734375,2.2094427490234376,-0.4310725190839694,1.1262404580152672,0.9159885496183207,swipe_down
1732508668.206233,0.0015983886718749993,0.8910189208984375,2.2260443115234376,1.7215992366412214,0.5460877862595419,-0.5114923664122137,swipe_down
1732508668.2392986,-0.008411376953125,0.9147005615234375,2.2028509521484376,0.4391564885496184,0.9735687022900763,-0.6565305343511451,swipe_down
1732508668.2723696,-0.0032844238281250007,0.8949251708984375,2.2111517333984376,-0.2173320610687022,0.04990458015267171,-0.5114923664122137,swipe_down
1732508668.3054304,-0.006458251953125001,0.8910189208984375,2.2038275146484376,0.19488167938931308,-0.6294847328244275,0.5343091603053435,swipe_down
1732508668.3384917,-0.006458251953125001,0.8922396240234375,2.2038275146484376,-0.186797709923664,-2.285973282442748,0.25186641221374045,swipe_down
1732508668.3715625,0.007701904296874999,0.8827181396484375,2.2240911865234376,1.3551870229007634,2.3247137404580154,2.8243854961832064,swipe_down
1732508668.404623,0.009410888671875,0.9000521240234375,2.2177435302734376,2.8666374045801524,3.103339694656489,-1.2672175572519082,swipe_down
1732508668.4376843,-0.006458251953125001,0.8963900146484375,2.2026068115234376,-0.5150419847328244,-0.4233778625954199,0.15262977099236644,swipe_down
1732508668.4707623,0.006237060546874999,0.8854036865234375,2.2480169677734376,1.2025152671755726,-0.5760496183206107,1.0304923664122139,swipe_down
1732508668.5038486,0.005260498046874999,0.9137239990234375,2.2018743896484376,1.1185458015267176,-0.8508587786259543,-0.6183625954198473,swipe_down
1732508668.536939,-0.008899658203125,0.9190950927734375,2.2055364990234376,-1.820385496183206,-2.3852099236641218,-0.5725610687022901,swipe_down
1732508668.5700157,0.006969482421874999,0.8751497802734375,2.2167669677734376,0.1490801526717558,-2.537881679389313,-0.11454580152671755,swipe_down
1732508668.6030822,-0.006702392578125001,0.8915072021484375,2.1447454833984376,-6.476874045801527,-4.606583969465649,2.908354961832061,swipe_down
1732508668.636169,0.097789794921875,0.9425325927734375,1.5092474365234376,-92.69061450381679,8.41631679389313,-5.053477099236641,swipe_down
1732508668.6692662,-0.418323486328125,1.2547884521484374,0.18600524902343762,-248.72114885496183,-222.12566793893131,140.63354580152674,swipe_down
1732508668.702328,0.309215576171875,0.3968782958984375,1.1569525146484376,-248.72114885496183,-239.11803435114504,225.63354580152674,swipe_down
1732508668.735407,0.684703857421875,0.3495150146484375,-0.047393188476562376,-248.72114885496183,172.84379770992365,-81.33591984732824,swipe_down
1732508668.76848,-0.047473876953125,-0.7620572509765625,0.11569274902343762,-248.72114885496183,251.45448473282443,-124.28248473282443,swipe_down
1732508668.8015432,-0.546253173828125,-1.0332974853515626,2.2355657958984376,-248.72114885496183,244.90486641221372,-61.77103435114504,swipe_down
1732508668.8346052,-0.284290283203125,-1.0332974853515626,1.4084173583984376,12.141446564885497,-246.85849236641224,104.32056870229007,swipe_down
1732508668.8676784,0.559703857421875,0.7386751708984375,0.041229858398437624,-0.721148854961832,-179.46917938931298,12.488507633587787,swipe_down
1732508668.9007602,0.286998779296875,0.6554232177734375,0.5475775146484376,-10.614278625954197,16.034637404580153,-12.4198893129771,swipe_down
1732508668.9338212,0.211803466796875,0.004788452148437483,1.0619818115234376,9.011675572519085,47.141507633587786,-5.870270992366412,swipe_down
1732508668.9668958,0.078014404296875,-0.16952795410156252,1.0304876708984376,2.759767175572519,28.797996183206106,-2.7328664122137405,swipe_down
1732508668.999956,0.0020866699218749993,-0.21615881347656252,1.0324407958984376,23.309385496183207,8.179675572519082,3.992324427480916,swipe_down
1732508669.0330203,0.055553466796875,0.15444665527343748,0.8444525146484376,31.339919847328243,-13.240171755725191,3.9541564885496183,swipe_down
1732508669.066093,0.107311279296875,0.20889001464843748,0.8373724365234376,8.60709541984733,5.3705152671755725,-0.2824847328244275,swipe_down
1732508669.099159,0.095592529296875,-0.06967443847656252,0.9230657958984376,21.72923282442748,17.179675572519084,-2.7634007633587787,swipe_down
1732508669.1322308,0.096080810546875,-0.07626623535156252,0.8774114990234376,24.660530534351146,1.378148854961832,-1.7099656488549617,swipe_down
1732508669.1653068,0.076305419921875,0.09292321777343748,0.8444525146484376,7.607095419847328,-6.957729007633588,7.129729007633588,swipe_down
1732508669.198367,0.163707763671875,0.06411462402343748,0.9098822021484376,0.9658740458015268,3.332347328244275,4.755683206106871,swipe_down
1732508669.2314336,0.159313232421875,-0.03988928222656252,0.9997259521484376,10.171980916030535,14.56135496183206,-2.885538167938931,swipe_down
1732508669.2645023,0.044078857421875,0.009182983398437483,0.9396673583984376,7.339919847328244,2.7216603053435118,2.4579732824427483,swipe_down
1732508669.2975655,0.098766357421875,-0.023287719726562517,0.9711614990234376,16.133812977099236,-5.492080152671756,1.664080152671756,swipe_down
1732508669.3306384,0.136119873046875,-0.012545532226562517,0.9689642333984376,25.43152290076336,5.210209923664122,-2.320652671755725,swipe_down
1732508669.3637094,0.093639404296875,-0.10043615722656252,1.0688177490234376,61.40862213740458,15.469751908396946,-1.290118320610687,swipe_down
1732508669.396773,0.134899169921875,-0.10995764160156252,1.1027532958984376,101.40098854961832,10.332347328244275,-8.771034351145039,swipe_down
1732508669.429839,0.140514404296875,-0.09457678222656252,1.1567083740234376,135.11091221374045,26.011736641221372,-7.671797709923664,swipe_down
1732508669.4629004,0.192028076171875,-0.07260412597656252,1.1874700927734376,149.2177824427481,44.828530534351145,-0.9313396946564886,swipe_down
1732508669.4959693,0.178600341796875,-0.11484045410156252,1.3046575927734376,155.14908015267176,60.41631679389313,3.6030114503816795,swipe_down
1732508669.5291026,0.164928466796875,-0.11410803222656252,1.4338079833984376,156.7826679389313,29.324713740458016,9.732782442748091,swipe_down
1732508669.562173,0.027965576171875,-0.08407873535156252,1.5163275146484376,156.6910648854962,9.759828244274809,12.961790076335879,swipe_down
1732508669.5952504,0.092906982421875,-0.09091467285156252,1.5888372802734376,173.538393129771,25.5537213740458,15.053393129770992,swipe_down
1732508669.6283078,0.011119873046875,-0.04110998535156252,1.6195989990234376,175.92770610687023,-6.011164122137404,12.999958015267175,swipe_down
1732508669.6613688,0.088512451171875,0.04824548339843748,1.6427923583984376,165.41625572519084,-6.728721374045802,9.961790076335879,swipe_down
1732508669.69444,0.044811279296875,0.16396813964843748,1.6706243896484376,153.72159923664123,-10.873759541984734,16.06866030534351,swipe_down
1732508669.7275176,0.097789794921875,0.17959313964843748,1.7963568115234376,133.24831679389314,15.752194656488548,19.114461832061068,swipe_down
1732508669.7606149,0.035533935546875,0.24648767089843748,1.9096380615234376,130.65289694656488,-9.942461832061069,15.351103053435114,swipe_down
1732508669.7936926,0.054821044921875,0.2994661865234375,1.9360052490234376,130.08801145038169,0.21784351145038164,16.480874045801524,swipe_down
1732508669.8267596,0.046520263671875,0.4022493896484375,1.9577337646484376,122.27885114503817,-4.797423664122137,14.290034351145039,swipe_down
1732508669.8598495,0.068492919921875,0.3980989990234375,2.0888372802734376,124.85137022900764,1.6987595419847328,15.320568702290077,swipe_down
1732508669.8929217,0.043346435546875,0.4830599365234375,2.0458685302734376,127.71396564885497,1.8743320610687022,5.137362595419847,swipe_down
1732508669.925996,0.045299560546875,0.5807161865234375,2.0241400146484376,112.95824045801527,-1.8661259541984734,5.938889312977099,swipe_down
1732508669.959083,0.093639404296875,0.6290560302734375,2.1127630615234376,113.32465267175573,27.462118320610685,4.198431297709924,swipe_down
1732508669.9921799,0.039440185546875,0.6647005615234375,2.1637884521484376,113.43915648854963,21.08807251908397,-12.954240458015267,swipe_down
1732508670.0252411,-0.017200439453125,0.7491732177734375,2.1454779052734376,115.79030152671756,35.202576335877865,2.0152251908396948,swipe_down
1732508670.0583198,-0.035022705078125,0.8590364990234375,2.0617376708984376,97.81320229007633,4.0346374045801525,2.0533931297709924,swipe_down
1732508672.3633502,0.040416748046875,0.9845247802734375,2.2209173583984376,-0.7898511450381679,-2.42337786259542,0.5114083969465649,swipe_down
1732508672.3964355,0.041637451171875,0.9874544677734375,2.2314154052734376,0.4009885496183207,-0.7210877862595421,0.6564465648854962,swipe_down
1732508672.429505,0.017223388671875,0.9867220458984375,2.2299505615234376,0.5765610687022902,1.0804389312977098,2.0304923664122136,swipe_down
1732508672.4625828,0.027721435546875,0.9938021240234375,2.2111517333984376,-0.44633969465648843,-1.3775763358778625,-0.045843511450381666,swipe_down
1732508672.4957135,0.020397216796875,0.9913607177734375,2.2187200927734376,1.1490801526717558,3.41631679389313,-0.31301908396946565,swipe_down
1732508672.5287783,-0.0015754394531250007,1.0064974365234374,2.2121282958984376,-0.2936679389312976,1.7521946564885496,-0.35882061068702287,swipe_down
1732508672.5618546,0.0023308105468749993,1.0104036865234374,2.2104193115234376,-2.728782442748092,-1.522614503816794,-0.18324809160305341,swipe_down
1732508672.5949094,-0.016468017578125,0.9938021240234375,2.2079779052734376,-9.74404961832061,-5.186736641221374,1.2213320610687024,swipe_down
1732508672.627989,0.026012451171875,0.9764681396484375,2.1510931396484376,-12.675347328244275,-7.797423664122137,-2.488591603053435,swipe_down
1732508672.6610677,0.036754638671875,0.9828157958984375,1.9670111083984376,-55.079927480916034,14.74456106870229,4.022858778625954,swipe_down
1732508672.6941278,-0.007678955078125001,1.0089388427734374,1.3962103271484376,-217.45397328244275,6.530820610687023,11.25186641221374,swipe_down
1732508672.7271907,-0.223255126953125,1.0355501708984374,0.6940618896484376,-248.72114885496183,-114.40047709923664,80.04575954198474,swipe_down
1732508672.7602575,0.465221435546875,0.7547884521484375,0.7070013427734376,-248.72114885496183,-248.81269083969468,74.71751526717557,swipe_down
1732508672.793321,0.450572998046875,0.3622103271484375,-0.2527154541015624,-248.72114885496183,94.64532442748092,18.961790076335877,swipe_down
1732508672.82638,0.347057373046875,-1.0332974853515626,0.2770697021484376,-248.72114885496183,251.45448473282443,-238.38935496183205,swipe_down
1732508672.8594468,-1.335803955078125,-1.0332974853515626,3.1568914794921876,-233.79748473282442,137.4926526717557,-17.038209923664123,swipe_down
1732508672.8925052,0.222301513671875,-0.6775845947265625,0.054413452148437624,103.57656106870229,-248.81269083969468,107.40453816793894,swipe_down
1732508672.9255636,0.740612060546875,1.0057650146484374,0.08444274902343762,7.210148854961832,-98.79742366412214,17.160263358778625,swipe_down
1732508672.9586298,0.530895263671875,0.24429040527343748,1.1742864990234376,40.13381297709923,78.17967557251909,-37.557293893129774,swipe_down
1732508672.9916902,0.126354248046875,0.04311853027343748,1.0541693115234376,32.89717175572519,39.523187022900764,-15.267217557251909,swipe_down
1732508673.0247521,0.104381591796875,-0.16342443847656252,1.1742864990234376,9.133812977099238,29.011736641221372,2.511408396946565,swipe_down
1732508673.0578196,0.067028076171875,-0.16391271972656252,1.2726751708984376,24.56892748091603,-1.4233778625954199,7.015225190839695,swipe_down
1732508673.0908782,0.114879638671875,0.18301110839843748,0.9679876708984376,17.637629770992366,-22.202003816793894,9.534309160305344,swipe_down
1732508673.123934,0.175914794921875,0.10805993652343748,0.9631048583984376,0.3322862595419848,5.156774809160305,-1.9466068702290076,swipe_down
1732508673.157002,0.142955810546875,-0.11020178222656252,1.0575872802734376,-5.42343893129771,14.73692748091603,-7.389354961832061,swipe_down
1732508673.1900628,0.060924560546875,-0.14682287597656252,1.0793157958984376,13.614729007633589,-2.7592557251908394,-0.22141603053435113,swipe_down
1732508673.223141,0.141735107421875,0.009915405273437483,1.0627142333984376,7.706332061068702,-10.10276717557252,10.480874045801526,swipe_down
1732508673.2562203,0.243785888671875,0.027493530273437483,1.0995794677734376,12.546026717557252,0.36288167938931293,1.5572099236641224,swipe_down
1732508673.2892761,0.174205810546875,-0.08944982910156252,1.1960150146484376,34.622362595419844,2.813263358778626,-5.687064885496183,swipe_down
1732508673.3223321,0.132213623046875,-0.06967443847656252,1.1911322021484376,53.76740076335878,-14.728721374045803,-0.32065267175572515,swipe_down
1732508673.3554564,0.169811279296875,0.004544311523437483,1.1110540771484376,44.82846946564885,-3.682919847328244,4.152629770992367,swipe_down
1732508673.3885353,0.167614013671875,-0.006930297851562517,1.1813665771484376,49.50022519083969,-0.2249045801526718,-3.7023320610687023,swipe_down
1732508673.4215956,0.158580810546875,-0.13949865722656252,1.3232122802734376,80.26358396946566,15.90486641221374,-8.549660305343512,swipe_down
1732508673.454673,0.150280029296875,-0.19345373535156252,1.4350286865234376,128.7063320610687,31.79799618320611,0.7327824427480916,swipe_down
1732508673.4877279,0.123180419921875,-0.11191076660156252,1.4245306396484376,147.79793511450382,12.74456106870229,4.908354961832061,swipe_down
1732508673.520788,0.103649169921875,-0.06430334472656252,1.3569036865234376,155.88190458015268,8.652958015267174,11.144996183206107,swipe_down
1732508673.5538592,0.275524169921875,-0.03818029785156252,1.5968939208984376,183.1948816793893,12.782729007633588,3.5877442748091606,swipe_down
1732508673.5869238,0.192272216796875,-0.04574865722656252,1.5983587646484376,185.13381297709924,25.11860687022901,-0.9924083969465648,swipe_down
1732508673.6199737,0.143688232421875,0.024563842773437483,1.6110540771484376,151.72159923664123,22.668225190839696,1.2976679389312977,swipe_down
1732508673.653037,0.077037841796875,0.13686853027343748,1.6991888427734376,146.62236259541984,7.790362595419848,5.480874045801527,swipe_down
1732508673.686101,0.084850341796875,0.12930017089843748,1.8349310302734376,149.7292328244275,11.72929389312977,14.312935114503818,swipe_down
1732508673.7191634,0.042369873046875,0.18960290527343748,1.9628607177734376,149.1948816793893,-7.9577290076335885,16.610645038167938,swipe_down
1732508673.7522187,0.058483154296875,0.23305993652343748,1.9726263427734376,157.20251526717558,-8.60658396946565,20.709881679389312,swipe_down
1732508673.7852864,0.118785888671875,0.3399935302734375,1.9987493896484376,156.2177824427481,13.37814885496183,27.358736641221373,swipe_down
1732508673.8183703,0.107067138671875,0.4183626708984375,2.0549017333984376,156.28648473282442,19.950667938931296,24.511408396946564,swipe_down
1732508673.8514335,0.127574951171875,0.5682650146484375,2.0119329833984376,147.86663740458016,25.74456106870229,13.25186641221374,swipe_down
1732508673.8845077,0.096324951171875,0.6549349365234375,1.9325872802734376,119.14908015267176,26.095706106870228,0.7862175572519084,swipe_down
1732508673.9175706,0.048717529296875,0.7286654052734375,2.1198431396484376,111.14908015267176,12.011736641221374,-9.015309160305343,swipe_down
1732508673.9506352,-0.021106689453125,0.8026400146484375,2.1147161865234376,98.66816412213741,12.759828244274809,7.793851145038168,swipe_down
